,rewards,balloon_number_session,run_num,pop_range_0,pop_range_1,balloon_number,press_time_error,press_time_time,balloon_in_bag,trkp_press_time,key_pressed,log_time,reward_appear_time_time,reward_appear_time_error,rt,grand_total,bag_ID_number,eeg_pulse_time,trial,set_number,pop_status,total,block,balloon_size,log_num,trkp_press_time_error,trkp_press_time_time
0,0.07,0.0,0.0,3.0,3.0,0.0,0.0005065969814950222,773.3858416879584,0.0,,4,773.9358416879584,772.691740793012,0.0,0.6941008949464731,0.99,0.0,,0.0,0.0,not_popped,0.07,0.0,105.0,0.0,,
1,0.1,0.0,0.0,3.0,3.0,0.0,0.0005074281496604272,777.0326858256465,0.0,,4,777.5826858256464,775.342269499066,0.0,1.6904163265804755,0.96,0.0,,1.0,0.0,not_popped,0.17,0.0,110.0,0.0,,
2,0.17,0.0,0.0,3.0,3.0,0.0,0.0004887268665356714,779.6703276852688,0.0,,4,780.2203276852688,778.8930073270242,0.0,0.7773203582446513,0.95,0.0,,2.0,0.0,not_popped,0.34,0.0,115.0,0.0,,
3,0.07,0.0,0.0,3.0,3.0,0.0,0.0004558957249400919,781.4861002366613,0.0,,4,783.2361002366613,781.4184820764132,0.0,0.06761816024811651,0.95,0.0,,3.0,0.0,popped,0.0,0.0,115.0,0.0,,
4,0.09,1.0,0.0,6.0,6.0,1.0,0.0005024411408385276,785.863799662989,0.0,,4,786.4137996629889,785.2942520844312,0.0,0.569547578557831,0.94,1.0,,0.0,0.0,not_popped,0.09,0.0,105.0,0.0,,
5,0.12,1.0,0.0,6.0,6.0,1.0,0.0008469603350249599,789.7338402904877,0.0,,4,790.2838402904877,787.7363997342478,0.0,1.9974405562398942,0.8999999999999999,1.0,,1.0,0.0,not_popped,0.21,0.0,110.0,0.0,,
6,0.06,1.0,0.0,6.0,6.0,1.0,0.0008414192140548948,793.709835877539,0.0,,4,794.259835877539,791.7205496348678,0.0,1.9892862426712554,0.8599999999999999,1.0,,2.0,0.0,not_popped,0.27,0.0,115.0,0.0,,
7,0.09,1.0,0.0,6.0,6.0,1.0,0.0005185103915437139,798.0731501383341,0.0,,4,798.623150138334,795.7630170627737,0.0,2.3101330755604295,0.8099999999999998,1.0,,3.0,0.0,not_popped,0.36,0.0,120.0,0.0,,
8,0.07,1.0,0.0,6.0,6.0,1.0,0.00045520308486857175,800.70607511876,0.0,,1,801.20607511876,799.9805237910798,0.0,0.7255513276802503,1.1599999999999997,1.0,,4.0,0.0,not_popped,0.36,0.0,120.0,0.0,,
9,0.12,2.0,0.0,10.0,10.0,2.0,0.0005297311614640421,803.985707509715,0.0,,4,804.5357075097149,803.2728184745405,0.0,0.7128890351744985,1.1499999999999997,2.0,,0.0,0.0,not_popped,0.12,0.0,105.0,0.0,,
10,0.15,2.0,0.0,10.0,10.0,2.0,0.00046545415858645356,808.9763837425728,0.0,,4,809.5263837425728,805.7649957970598,0.0,3.2113879455130245,1.0799999999999996,2.0,,1.0,0.0,not_popped,0.27,0.0,110.0,0.0,,
11,0.08,2.0,0.0,10.0,10.0,2.0,0.0005050731732580971,811.2766939345228,0.0,,4,811.8266939345227,810.6659859399597,0.0,0.6107079945630858,1.0699999999999996,2.0,,2.0,0.0,not_popped,0.35000000000000003,0.0,115.0,0.0,,
12,0.07,2.0,0.0,10.0,10.0,2.0,0.0005403978192362047,813.4136808336506,0.0,,4,813.9636808336505,813.0247923603457,0.0,0.38888847330485987,1.0699999999999996,2.0,,3.0,0.0,not_popped,0.42000000000000004,0.0,120.0,0.0,,
13,0.2,2.0,0.0,10.0,10.0,2.0,0.0005083978458060301,815.4121840383579,0.0,,1,815.9121840383579,815.2835929071435,0.0,0.1285911312143071,1.4899999999999998,2.0,,4.0,0.0,not_popped,0.42000000000000004,0.0,120.0,0.0,,
0,0.1,0.0,0.0,0.0,8.0,8.0,0.0004872030582419029,824.958899428101,2.0,,4,825.5088994281009,823.2184675586764,0.0,1.740431869424583,0.97,1.0,,0.0,0.0,not_popped,0.1,0.0,105.0,0.0,,
1,0.24,0.0,0.0,0.0,8.0,8.0,0.0004964844358710252,827.3322821826919,2.0,,4,827.8822821826918,826.8275223598082,0.0,0.5047598228836705,0.96,1.0,,1.0,0.0,not_popped,0.33999999999999997,0.0,110.0,0.0,,
2,0.24,0.0,0.0,0.0,8.0,8.0,0.0004982853001251897,829.637988733793,2.0,,4,830.187988733793,829.0529789343205,0.0,0.5850097994724592,0.95,1.0,,2.0,0.0,not_popped,0.58,0.0,115.0,0.0,,
3,0.09,0.0,0.0,0.0,8.0,8.0,0.0005006402765275197,831.9427386103645,2.0,,1,832.4427386103645,831.4951437616121,0.0,0.44759484875237376,1.52,1.0,,3.0,0.0,not_popped,0.58,0.0,115.0,0.0,,
4,0.16,1.0,0.0,8.0,16.0,15.0,0.0005099216540997986,836.1980694457604,3.0,,4,836.7480694457604,834.6291147671427,0.0,1.5689546786177289,1.49,2.0,,0.0,0.0,not_popped,0.16,0.0,105.0,0.0,,
5,0.23,1.0,0.0,8.0,16.0,15.0,0.0009623541784549161,838.2184757318297,3.0,,4,838.7684757318297,837.9964406609671,0.0,0.22203507086260288,1.49,2.0,,1.0,0.0,not_popped,0.39,0.0,110.0,0.0,,
6,0.12,1.0,0.0,8.0,16.0,15.0,0.0005054887573123779,840.7515941804932,3.0,,4,841.3015941804931,840.1218506346523,0.0,0.6297435458408245,1.48,2.0,,2.0,0.0,not_popped,0.51,0.0,115.0,0.0,,
7,0.06,1.0,0.0,8.0,16.0,15.0,0.0005244670965112164,842.8830865041012,3.0,,1,843.3830865041012,842.4889812039637,0.0,0.3941053001375394,1.99,2.0,,3.0,0.0,not_popped,0.51,0.0,115.0,0.0,,
8,0.07,2.0,0.0,0.0,8.0,11.0,0.00048470955380253145,845.6800353135637,5.0,,4,846.2300353135637,845.6398060829317,0.0,0.040229230632007784,1.99,1.0,,0.0,0.0,not_popped,0.07,0.0,105.0,0.0,,
9,0.09,2.0,0.0,0.0,8.0,11.0,0.00047806020870666543,847.8242005963355,5.0,,4,848.3742005963354,847.3816230940622,0.0,0.4425775022732523,1.99,1.0,,1.0,0.0,not_popped,0.16,0.0,110.0,0.0,,
10,0.1,2.0,0.0,0.0,8.0,11.0,0.0004914974269922823,849.9560414564504,5.0,,4,850.5060414564504,849.6654301655299,0.0,0.2906112909205376,1.99,1.0,,2.0,0.0,not_popped,0.26,0.0,115.0,0.0,,
11,0.21,2.0,0.0,0.0,8.0,11.0,0.0005268220729135464,852.2244629130005,5.0,,4,852.7744629130004,851.8575411054204,0.0,0.36692180758007,1.99,1.0,,3.0,0.0,not_popped,0.47,0.0,120.0,0.0,,
12,0.11,2.0,0.0,0.0,8.0,11.0,0.0005651943354223476,854.4053590397016,5.0,,4,854.9553590397015,853.9913381197536,0.0,0.4140209199480296,1.99,1.0,,4.0,0.0,not_popped,0.58,0.0,125.0,0.0,,
13,0.11,2.0,0.0,0.0,8.0,11.0,0.000534856698322983,856.6650213693329,5.0,,4,857.2150213693328,856.2500766059969,0.0,0.41494476333593866,1.99,1.0,,5.0,0.0,not_popped,0.69,0.0,130.0,0.0,,
14,0.14,2.0,0.0,0.0,8.0,11.0,0.0004902506747725965,859.2976971378448,5.0,,4,861.0476971378448,858.6505622298357,0.0,0.6471349080090931,1.98,1.0,,6.0,0.0,popped,0.0,0.0,130.0,0.0,,
15,0.09,3.0,0.0,0.0,16.0,0.0,0.0009890900869891084,863.6907508717568,0.0,,4,864.2407508717567,863.1431249373161,0.0,0.5476259344407026,1.97,0.0,,0.0,0.0,not_popped,0.09,0.0,105.0,0.0,,
16,0.24,3.0,0.0,0.0,16.0,0.0,0.0005426142676014933,866.0227364659506,0.0,,4,866.5727364659506,865.5852853317109,0.0,0.4374511342397227,1.97,0.0,,1.0,0.0,not_popped,0.32999999999999996,0.0,110.0,0.0,,
17,0.24,3.0,0.0,0.0,16.0,0.0,0.000496068851759901,868.175694953535,0.0,,4,868.7256949535349,867.7856722127746,0.0,0.39002274076040067,1.97,0.0,,2.0,0.0,not_popped,0.57,0.0,115.0,0.0,,
18,0.05,3.0,0.0,0.0,16.0,0.0,0.0009649862108744856,870.7085010215056,0.0,,1,871.2085010215056,870.0778186712503,0.0,0.6306823502553698,2.53,0.0,,3.0,0.0,not_popped,0.57,0.0,115.0,0.0,,
19,0.07,4.0,0.0,0.0,16.0,3.0,0.0005088134299171543,874.0411421303061,3.0,,4,874.591142130306,873.320158210085,0.0,0.7209839202211015,2.52,0.0,,0.0,0.0,not_popped,0.07,0.0,105.0,0.0,,
20,0.14,4.0,0.0,0.0,16.0,3.0,0.0011036527623673464,876.287356297955,3.0,,4,876.8373562979549,875.8456894789075,0.0,0.4416668190474411,2.5100000000000002,0.0,,1.0,0.0,not_popped,0.21000000000000002,0.0,110.0,0.0,,
21,0.08,4.0,0.0,0.0,16.0,3.0,0.0006146488397575922,879.1652136462294,3.0,,4,879.7152136462294,878.4045630576792,0.0,0.7606505885502202,2.5000000000000004,0.0,,2.0,0.0,not_popped,0.29000000000000004,0.0,115.0,0.0,,
22,0.11,4.0,0.0,0.0,16.0,3.0,0.0005408134033473289,881.617109928636,3.0,,4,882.1671099286359,881.180054846015,0.0,0.43705508262098647,2.5000000000000004,0.0,,3.0,0.0,not_popped,0.4,0.0,120.0,0.0,,
23,0.18,4.0,0.0,0.0,16.0,3.0,0.0005172636393240282,884.087897693176,3.0,,4,884.637897693176,883.5221860941137,0.0,0.565711599062297,2.4900000000000007,0.0,,4.0,0.0,not_popped,0.5800000000000001,0.0,125.0,0.0,,
24,0.09,4.0,0.0,0.0,16.0,3.0,0.00048637189013334137,886.121742444266,3.0,,1,886.621742444266,885.6894880502956,0.0,0.43225439397042464,3.0700000000000007,0.0,,5.0,0.0,not_popped,0.5800000000000001,0.0,125.0,0.0,,
25,0.2,5.0,0.0,8.0,16.0,14.0,0.0005510644770652107,889.1707981264362,2.0,,4,889.7207981264362,888.7565677521169,0.0,0.4142303743193452,3.0700000000000007,2.0,,0.0,0.0,not_popped,0.2,0.0,105.0,0.0,,
26,0.15,5.0,0.0,8.0,16.0,14.0,0.0005176792234351524,891.2037745838757,2.0,,4,891.7537745838756,891.0403088842454,0.0,0.16346569963025104,3.0700000000000007,2.0,,1.0,0.0,not_popped,0.35,0.0,110.0,0.0,,
27,0.13,5.0,0.0,8.0,16.0,14.0,0.0004978697160709089,893.8275231909763,2.0,,4,894.3775231909763,893.0240648111669,0.0,0.803458379809399,3.060000000000001,2.0,,2.0,0.0,not_popped,0.48,0.0,115.0,0.0,,
28,0.21,5.0,0.0,8.0,16.0,14.0,0.0004788913768720704,896.0393423742262,2.0,,4,896.5893423742261,895.6913188366527,0.0,0.3480235375734537,3.060000000000001,2.0,,3.0,0.0,not_popped,0.69,0.0,120.0,0.0,,
29,0.21,5.0,0.0,8.0,16.0,14.0,0.0023682750878606385,898.36564139306,2.0,,4,898.9156413930599,897.8750283289808,0.0,0.49061306407918437,3.050000000000001,2.0,,4.0,0.0,not_popped,0.8999999999999999,0.0,125.0,0.0,,
30,0.1,5.0,0.0,8.0,16.0,14.0,0.000496068851759901,900.9562776467303,2.0,,1,901.4562776467303,900.3005382090764,0.0,0.6557394376538923,3.9400000000000013,2.0,,5.0,0.0,not_popped,0.8999999999999999,0.0,125.0,0.0,,
31,0.16,6.0,0.0,0.0,8.0,9.0,0.0005131077986675336,903.801293740916,3.0,,4,904.3512937409159,903.4511417202632,0.0,0.3501520206527857,3.9400000000000013,1.0,,0.0,0.0,not_popped,0.16,0.0,105.0,0.0,,
32,0.08,6.0,0.0,0.0,8.0,9.0,0.004514489754171791,906.1643151534697,3.0,,4,906.7143151534697,905.7183129614023,0.0,0.4460021920674535,3.9300000000000015,1.0,,1.0,0.0,not_popped,0.24,0.0,110.0,0.0,,
33,0.12,6.0,0.0,0.0,8.0,9.0,0.0004908047868639187,908.3636569791249,3.0,,4,910.1136569791249,907.9770453524126,0.0,0.3866116267123516,3.9300000000000015,1.0,,2.0,0.0,popped,0.0,0.0,110.0,0.0,,
34,0.1,7.0,0.0,8.0,16.0,17.0,0.0005009173325447591,913.3813258129239,5.0,,4,913.9313258129239,912.227948416597,0.0,1.1533773963269596,3.910000000000002,2.0,,0.0,0.0,not_popped,0.1,0.0,105.0,0.0,,
35,0.05,7.0,0.0,8.0,16.0,17.0,0.0005121381024650873,916.1155552286293,5.0,,4,916.6655552286293,915.4618931572144,0.0,0.6536620714149421,3.900000000000002,2.0,,1.0,0.0,not_popped,0.15000000000000002,0.0,110.0,0.0,,
36,0.2,7.0,0.0,8.0,16.0,17.0,0.0005097831260627572,918.3192200983106,5.0,,4,918.8692200983105,917.9873812052936,0.0,0.3318388930169931,3.900000000000002,2.0,,2.0,0.0,not_popped,0.35000000000000003,0.0,115.0,0.0,,
37,0.07,7.0,0.0,8.0,16.0,17.0,0.000496900019925306,920.3447861376669,5.0,,4,920.8947861376669,920.3129331424972,0.0,0.031852995169742826,3.900000000000002,2.0,,3.0,0.0,not_popped,0.42000000000000004,0.0,120.0,0.0,,
38,0.08,7.0,0.0,8.0,16.0,17.0,0.004989640874441648,922.3837668152241,5.0,,4,922.9337668152241,921.9881990747436,0.0,0.3955677404804874,3.900000000000002,2.0,,4.0,0.0,not_popped,0.5,0.0,125.0,0.0,,
39,0.09,7.0,0.0,8.0,16.0,17.0,0.0004989779402535532,924.5462467494399,5.0,,4,925.0962467494398,924.1469399990801,0.0,0.3993067503597558,3.900000000000002,2.0,,5.0,0.0,not_popped,0.59,0.0,130.0,0.0,,
40,0.17,7.0,0.0,8.0,16.0,17.0,0.00047473553615873243,926.9875583826355,5.0,,4,927.5375583826354,926.5807798462782,0.0,0.40677853635725114,3.900000000000002,2.0,,6.0,0.0,not_popped,0.76,0.0,135.0,0.0,,
41,0.08,7.0,0.0,8.0,16.0,17.0,0.0005140774948131366,929.3717220806466,5.0,,1,929.8717220806466,928.8895734943804,0.0,0.48214858626613477,4.650000000000002,2.0,,7.0,0.0,not_popped,0.76,0.0,135.0,0.0,,
42,0.19,8.0,0.0,8.0,16.0,16.0,0.000521003895926242,932.2900858541277,4.0,,4,932.8400858541277,931.8818164791828,0.0,0.40826937494489357,4.650000000000002,2.0,,0.0,0.0,not_popped,0.19,0.0,105.0,0.0,,
43,0.12,8.0,0.0,8.0,16.0,16.0,0.00048803422640730787,934.4344564354301,4.0,,4,934.98445643543,934.0990126276605,0.0,0.33544380776959315,4.650000000000002,2.0,,1.0,0.0,not_popped,0.31,0.0,110.0,0.0,,
44,0.11,8.0,0.0,8.0,16.0,16.0,0.00047390436799332747,936.9144369196022,4.0,,4,937.4644369196021,936.4327471381496,0.0,0.48168978145258734,4.640000000000002,2.0,,2.0,0.0,not_popped,0.42,0.0,115.0,0.0,,
45,0.12,8.0,0.0,8.0,16.0,16.0,0.0004680861910628664,939.304095470189,4.0,,4,939.854095470189,938.9415785766965,0.0,0.36251689349251137,4.640000000000002,2.0,,3.0,0.0,not_popped,0.54,0.0,120.0,0.0,,
46,0.11,8.0,0.0,8.0,16.0,16.0,0.00048664894615058074,941.6110361674505,4.0,,4,942.1610361674504,941.2086930213461,0.0,0.4023431461043856,4.640000000000002,2.0,,4.0,0.0,not_popped,0.65,0.0,125.0,0.0,,
47,0.15,8.0,0.0,8.0,16.0,16.0,0.0005099216540429552,944.0370766098757,4.0,,4,944.5870766098757,943.5007801898278,0.0,0.536296420047961,4.630000000000003,2.0,,5.0,0.0,not_popped,0.8,0.0,130.0,0.0,,
48,0.25,8.0,0.0,8.0,16.0,16.0,0.00047792168066962404,946.4483132550815,4.0,,4,946.9983132550815,946.1596906724649,0.0,0.28862258261665374,4.630000000000003,2.0,,6.0,0.0,not_popped,1.05,0.0,135.0,0.0,,
49,0.24,8.0,0.0,8.0,16.0,16.0,0.0004877571703332251,948.7624093403351,4.0,,4,949.3124093403351,948.1267481543912,0.0,0.6356611859439454,4.620000000000003,2.0,,7.0,0.0,not_popped,1.29,0.0,140.0,0.0,,
50,0.15,8.0,0.0,8.0,16.0,16.0,0.00046877883113438656,951.168753452811,4.0,,1,951.668753452811,950.8022759046019,0.0,0.3664775482091045,5.910000000000003,2.0,,8.0,0.0,not_popped,1.29,0.0,140.0,0.0,,
51,0.14,9.0,0.0,0.0,16.0,5.0,0.0009040338806016734,954.2225206115846,5.0,,4,954.7725206115846,953.8945449880838,0.0,0.32797562350083354,5.910000000000003,0.0,,0.0,0.0,not_popped,0.14,0.0,105.0,0.0,,
52,0.21,9.0,0.0,0.0,16.0,5.0,0.0005286229372245543,956.1932909215936,5.0,,4,956.7432909215936,955.9449824872872,0.0,0.24830843430640925,5.910000000000003,0.0,,1.0,0.0,not_popped,0.35,0.0,110.0,0.0,,
53,0.17,9.0,0.0,0.0,16.0,5.0,0.00048803422640730787,958.1607843512095,5.0,,4,959.9107843512095,957.9286987951941,0.0,0.23208555601536318,5.910000000000003,0.0,,2.0,0.0,popped,0.0,0.0,110.0,0.0,,
54,0.16,10.0,0.0,8.0,16.0,12.0,0.0009770381489033753,962.0848554792543,0.0,,4,962.6348554792543,961.8211229192398,0.0,0.2637325600145459,5.910000000000003,2.0,,0.0,0.0,not_popped,0.16,0.0,105.0,0.0,,
55,0.22,10.0,0.0,8.0,16.0,12.0,0.0005063199254777828,964.1486323959418,0.0,,4,964.6986323959418,963.9465581050252,0.0,0.2020742909165847,5.910000000000003,2.0,,1.0,0.0,not_popped,0.38,0.0,110.0,0.0,,
56,0.22,10.0,0.0,8.0,16.0,12.0,0.0004905277308466793,966.0344900146231,0.0,,4,966.584490014623,965.8052487159838,0.0,0.22924129863929466,5.910000000000003,2.0,,2.0,0.0,not_popped,0.6,0.0,115.0,0.0,,
57,0.21,10.0,0.0,8.0,16.0,12.0,0.000461436845910157,968.3398060552261,0.0,,4,968.889806055226,967.997387915591,0.0,0.342418139635015,5.910000000000003,2.0,,3.0,0.0,not_popped,0.8099999999999999,0.0,120.0,0.0,,
58,0.24,10.0,0.0,8.0,16.0,12.0,0.0005550817896846638,970.5279235092584,0.0,,4,971.0779235092583,970.231152292722,0.0,0.29677121653639915,5.910000000000003,2.0,,4.0,0.0,not_popped,1.0499999999999998,0.0,125.0,0.0,,
59,0.23,10.0,0.0,8.0,16.0,12.0,0.00047265761577364174,972.670554040059,0.0,,4,973.2205540400589,972.1732018646981,0.0,0.49735217536090204,5.900000000000003,2.0,,5.0,0.0,not_popped,1.2799999999999998,0.0,130.0,0.0,,
60,0.08,10.0,0.0,8.0,16.0,12.0,0.0004703026394281551,975.0951619641944,0.0,,1,975.5951619641944,974.5653522573696,0.0,0.5298097068248353,7.1700000000000035,2.0,,6.0,0.0,not_popped,1.2799999999999998,0.0,130.0,0.0,,
61,0.23,11.0,0.0,0.0,16.0,2.0,0.0005257138487309021,978.3091054746828,2.0,,4,978.8591054746828,977.7578519068936,0.0,0.5512535677892174,7.160000000000004,0.0,,0.0,0.0,not_popped,0.23,0.0,105.0,0.0,,
62,0.07,11.0,0.0,0.0,16.0,2.0,0.0004923285951576872,980.4680886845324,2.0,,4,981.0180886845324,980.2164821750451,0.0,0.25160650948726015,7.160000000000004,0.0,,1.0,0.0,not_popped,0.30000000000000004,0.0,110.0,0.0,,
63,0.08,11.0,0.0,0.0,16.0,2.0,0.0004650385745321728,982.7419955737525,2.0,,1,983.2419955737525,982.3335668915807,0.0,0.4084286821718024,7.4600000000000035,0.0,,2.0,0.0,not_popped,0.30000000000000004,0.0,110.0,0.0,,
64,0.12,12.0,0.0,8.0,16.0,13.0,0.0005099216540997986,985.5018589075457,1.0,,4,986.0518589075457,985.2091399127495,0.0,0.2927189947962461,7.4600000000000035,2.0,,0.0,0.0,not_popped,0.12,0.0,105.0,0.0,,
65,0.16,12.0,0.0,8.0,16.0,13.0,0.0005394281230906017,987.5911594740146,1.0,,4,988.1411594740146,987.2678624959758,0.0,0.32329697803879753,7.4600000000000035,2.0,,1.0,0.0,not_popped,0.28,0.0,110.0,0.0,,
66,0.13,12.0,0.0,8.0,16.0,13.0,0.00048318574556560634,989.6750041142823,1.0,,4,990.2250041142822,989.4516708973125,0.0,0.22333321696976327,7.4600000000000035,2.0,,2.0,0.0,not_popped,0.41000000000000003,0.0,115.0,0.0,,
67,0.15,12.0,0.0,8.0,16.0,13.0,0.00048470955385937486,992.2763945754643,1.0,,4,992.8263945754643,991.5854125004364,0.0,0.6909820750279323,7.450000000000004,2.0,,3.0,0.0,not_popped,0.56,0.0,120.0,0.0,,
68,0.16,12.0,0.0,8.0,16.0,13.0,0.00047293467184772453,994.2873090598989,1.0,,4,994.8373090598989,993.9692215667076,0.0,0.3180874931913422,7.450000000000004,2.0,,4.0,0.0,not_popped,0.7200000000000001,0.0,125.0,0.0,,
69,0.06,12.0,0.0,8.0,16.0,13.0,0.0004837398576569285,996.272655288529,1.0,,4,996.822655288529,995.9779989793255,0.0,0.29465630920344665,7.450000000000004,2.0,,5.0,0.0,not_popped,0.78,0.0,130.0,0.0,,
70,0.24,12.0,0.0,8.0,16.0,13.0,0.0005106142942281622,998.3635476805146,1.0,,4,998.9135476805145,998.0033617980715,0.0,0.36018588244303373,7.450000000000004,2.0,,6.0,0.0,not_popped,1.02,0.0,135.0,0.0,,
71,0.23,12.0,0.0,8.0,16.0,13.0,0.0005031337809668912,1000.4127168171358,1.0,,4,1000.9627168171357,1000.0287645128884,0.0,0.3839523042473729,7.450000000000004,2.0,,7.0,0.0,not_popped,1.25,0.0,140.0,0.0,,
72,0.15,12.0,0.0,8.0,16.0,13.0,0.000528345881207315,1002.677816233157,1.0,,4,1003.227816233157,1002.2542069575422,0.0,0.4236092756148082,7.450000000000004,2.0,,8.0,0.0,not_popped,1.4,0.0,145.0,0.0,,
73,0.12,12.0,0.0,8.0,16.0,13.0,0.0005201727278176804,1004.8311538719413,1.0,,4,1005.3811538719413,1004.4046386939799,0.0,0.4265151779613916,7.450000000000004,2.0,,9.0,0.0,not_popped,1.52,0.0,150.0,0.0,,
74,0.1,12.0,0.0,8.0,16.0,13.0,0.00047238055975640236,1007.3634845117358,1.0,,1,1007.8634845117358,1006.6550826762949,0.0,0.7084018354408954,8.960000000000004,2.0,,10.0,0.0,not_popped,1.52,0.0,150.0,0.0,,
75,0.06,13.0,0.0,0.0,8.0,10.0,0.0005175406953412676,1010.2623521282615,4.0,,4,1010.8123521282614,1009.8390567571477,0.0,0.4232953711137952,8.960000000000004,1.0,,0.0,0.0,not_popped,0.06,0.0,105.0,0.0,,
76,0.17,13.0,0.0,0.0,8.0,10.0,0.00048457102582233347,1012.4530824978708,4.0,,4,1013.0030824978708,1012.172840583613,0.0,0.2802419142577719,8.960000000000004,1.0,,1.0,0.0,not_popped,0.23,0.0,110.0,0.0,,
77,0.19,13.0,0.0,0.0,8.0,10.0,0.000497038547905504,1014.8312662181684,4.0,,4,1015.3812662181683,1014.348287433458,0.0,0.4829787847103262,8.950000000000005,1.0,,2.0,0.0,not_popped,0.42000000000000004,0.0,115.0,0.0,,
78,0.05,13.0,0.0,0.0,8.0,10.0,0.000503549365021172,1016.991933097614,4.0,,1,1017.491933097614,1016.6987577915087,0.0,0.29317530610535414,9.370000000000005,1.0,,3.0,0.0,not_popped,0.42000000000000004,0.0,115.0,0.0,,
79,0.07,14.0,0.0,0.0,16.0,4.0,0.0005341640581946194,1019.96980449263,4.0,,4,1020.51980449263,1019.41591653742,0.0,0.5538879552100298,9.360000000000005,0.0,,0.0,0.0,not_popped,0.07,0.0,105.0,0.0,,
80,0.16,14.0,0.0,0.0,16.0,4.0,0.0004891424505331088,1022.0792403843543,4.0,,4,1022.6292403843543,1021.7831000244363,0.0,0.296140359918013,9.360000000000005,0.0,,1.0,0.0,not_popped,0.23,0.0,110.0,0.0,,
81,0.1,14.0,0.0,0.0,16.0,4.0,0.00046171390192739636,1024.611691682057,4.0,,4,1025.161691682057,1024.0419512724907,0.0,0.5697404095662932,9.350000000000005,0.0,,2.0,0.0,not_popped,0.33,0.0,115.0,0.0,,
82,0.16,14.0,0.0,0.0,16.0,4.0,0.0005288999932417937,1027.1022694214903,4.0,,4,1028.8522694214903,1026.300624096451,0.0,0.801645325039317,9.340000000000005,0.0,,3.0,0.0,popped,0.0,0.0,115.0,0.0,,
83,0.16,15.0,0.0,0.0,8.0,7.0,0.00046171390192739636,1031.290554078847,1.0,,4,1031.840554078847,1030.984919839374,0.0,0.3056342394729654,9.340000000000005,1.0,,0.0,0.0,not_popped,0.16,0.0,105.0,0.0,,
84,0.19,15.0,0.0,0.0,8.0,7.0,0.0005938696361909024,1033.4331365404232,1.0,,4,1035.1831365404232,1033.1353693073986,0.0,0.29776723302461505,9.340000000000005,1.0,,1.0,0.0,popped,0.0,0.0,105.0,0.0,,
85,0.05,16.0,0.0,0.0,16.0,1.0,0.00051006018213684,1037.5998329906151,1.0,,4,1038.149832990615,1037.3361886729515,0.0,0.2636443176636476,9.340000000000005,0.0,,0.0,0.0,not_popped,0.05,0.0,105.0,0.0,,
86,0.19,16.0,0.0,0.0,16.0,1.0,0.000671860913485034,1039.7463258212356,1.0,,4,1040.2963258212355,1039.4949268267276,0.0,0.2513989945080084,9.340000000000005,0.0,,1.0,0.0,not_popped,0.24,0.0,110.0,0.0,,
87,0.12,16.0,0.0,0.0,16.0,1.0,0.000493575347377373,1041.9871688418339,1.0,,4,1042.5371688418338,1041.7122565162197,0.0,0.27491232561419565,9.340000000000005,0.0,,2.0,0.0,not_popped,0.36,0.0,115.0,0.0,,
88,0.23,16.0,0.0,0.0,16.0,1.0,0.0004651771025692142,1043.965718192996,1.0,,4,1044.515718192996,1043.7041567826923,0.0,0.2615614103037842,9.340000000000005,0.0,,3.0,0.0,not_popped,0.59,0.0,120.0,0.0,,
89,0.11,16.0,0.0,0.0,16.0,1.0,0.0004977311880338675,1046.4062540692607,1.0,,4,1046.9562540692607,1045.9796308394411,0.0,0.4266232298195973,9.340000000000005,0.0,,4.0,0.0,not_popped,0.7,0.0,125.0,0.0,,
90,0.18,16.0,0.0,0.0,16.0,1.0,0.0004944065154859345,1048.82919231513,1.0,,4,1049.37919231513,1048.3469345687818,0.0,0.48225774634829577,9.330000000000005,0.0,,5.0,0.0,not_popped,0.8799999999999999,0.0,130.0,0.0,,
91,0.06,16.0,0.0,0.0,16.0,1.0,0.0004981467720881483,1051.4395621627882,1.0,,1,1051.9395621627882,1050.8055648369332,0.0,0.6339973258550344,10.200000000000006,0.0,,6.0,0.0,not_popped,0.8799999999999999,0.0,130.0,0.0,,
92,0.15,17.0,0.0,0.0,8.0,6.0,0.0005182333354696311,1054.5982644378062,0.0,,4,1055.1482644378061,1054.0228737472219,0.0,0.5753906905842996,10.190000000000007,1.0,,0.0,0.0,not_popped,0.15,0.0,105.0,0.0,,
93,0.12,17.0,0.0,0.0,8.0,6.0,0.0005107528222652036,1056.725147795548,0.0,,4,1057.275147795548,1056.398342872373,0.0,0.326804923175132,10.190000000000007,1.0,,1.0,0.0,not_popped,0.27,0.0,110.0,0.0,,
94,0.09,17.0,0.0,0.0,8.0,6.0,0.0004899736187553572,1059.1070662313564,0.0,,1,1059.6070662313564,1058.5737803023126,0.0,0.5332859290438137,10.450000000000006,1.0,,2.0,0.0,not_popped,0.27,0.0,110.0,0.0,,
95,0.2,0.0,2.0,0.0,8.0,9.0,0.0005869432351346404,1963.214124289559,3.0,,4,1963.764124289559,1962.9291434701493,0.0,0.28498081940983866,1.0,1.0,,0.0,0.0,not_popped,0.2,0.0,105.0,0.0,,
96,0.08,0.0,2.0,0.0,8.0,9.0,0.0005043805331297335,1965.6869697493585,3.0,,4,1966.2369697493584,1965.0462007581361,0.0,0.6407689912223304,0.99,1.0,,1.0,0.0,not_popped,0.28,0.0,110.0,0.0,,
97,0.12,0.0,2.0,0.0,8.0,9.0,0.0005115839903737651,1968.0539326997616,3.0,,4,1968.6039326997616,1967.4383228910908,0.0,0.6156098086707971,0.98,1.0,,2.0,0.0,not_popped,0.4,0.0,115.0,0.0,,
98,0.08,0.0,2.0,0.0,8.0,9.0,0.0004953762116883809,1970.6134743991902,3.0,,1,1971.1134743991902,1970.0138583434598,0.0,0.5996160557303938,1.37,1.0,,3.0,0.0,not_popped,0.4,0.0,115.0,0.0,,
99,0.07,1.0,2.0,0.0,8.0,11.0,0.000516709527232706,1974.3519373698182,5.0,,4,1976.1019373698182,1973.3645229177991,0.0,0.9874144520190384,1.35,1.0,,0.0,0.0,popped,0.0,0.0,100.0,0.0,,
100,0.24,2.0,2.0,0.0,16.0,17.0,0.0005424757396212954,1978.5837318784565,5.0,,4,1979.1337318784565,1978.3155141966288,0.0,0.26821768182776395,1.35,2.0,,0.0,0.0,not_popped,0.24,0.0,105.0,0.0,,
101,0.25,2.0,2.0,0.0,16.0,17.0,0.0045028534002540255,1980.895629246923,5.0,,4,1981.4456292469229,1980.499294615305,0.0,0.3963346316179468,1.35,2.0,,1.0,0.0,not_popped,0.49,0.0,110.0,0.0,,
102,0.14,2.0,2.0,0.0,16.0,17.0,0.0005154627749561769,1983.155841117223,5.0,,4,1983.705841117223,1982.7914033941581,0.0,0.3644377230648388,1.35,2.0,,2.0,0.0,not_popped,0.63,0.0,115.0,0.0,,
103,0.12,2.0,2.0,0.0,16.0,17.0,0.006872652296351589,1985.269884173949,5.0,,4,1985.819884173949,1984.8167966890694,0.0,0.4530874848796884,1.34,2.0,,3.0,0.0,not_popped,0.75,0.0,120.0,0.0,,
104,0.08,2.0,2.0,0.0,16.0,17.0,0.0015548385345027782,1987.8033400768775,5.0,,1,1988.3033400768775,1987.1839555180975,0.0,0.6193845587799842,2.08,2.0,,4.0,0.0,not_popped,0.75,0.0,120.0,0.0,,
105,0.16,3.0,2.0,0.0,16.0,12.0,0.000503549365021172,1990.7086532638034,0.0,,4,1991.2586532638034,1990.4095741703973,0.0,0.29907909340613514,2.08,2.0,,0.0,0.0,not_popped,0.16,0.0,105.0,0.0,,
106,0.16,3.0,2.0,0.0,16.0,12.0,0.0004928827071353226,1992.8479876588153,0.0,,4,1993.3979876588153,1992.593341013327,0.0,0.25464664548826477,2.08,2.0,,1.0,0.0,not_popped,0.32,0.0,110.0,0.0,,
107,0.08,3.0,2.0,0.0,16.0,12.0,0.0069511976855665125,1995.1460787703588,0.0,,4,1995.6960787703588,1994.7021456328487,0.0,0.4439331375101574,2.0700000000000003,2.0,,2.0,0.0,not_popped,0.4,0.0,115.0,0.0,,
108,0.1,3.0,2.0,0.0,16.0,12.0,0.002899253001487523,1997.160869684472,0.0,,4,1997.7108696844718,1996.827538706115,0.0,0.33333097835679837,2.0700000000000003,2.0,,3.0,0.0,not_popped,0.5,0.0,120.0,0.0,,
109,0.2,3.0,2.0,0.0,16.0,12.0,0.0009170555147193227,1999.521133835248,0.0,,4,2000.071133835248,1999.1279979542182,0.0,0.39313588102982067,2.0700000000000003,2.0,,4.0,0.0,not_popped,0.7,0.0,125.0,0.0,,
110,0.11,3.0,2.0,0.0,16.0,12.0,0.0005577138221042333,2001.8819785569704,0.0,,4,2002.4319785569703,2001.4451041148918,0.0,0.4368744420785333,2.0700000000000003,2.0,,5.0,0.0,not_popped,0.8099999999999999,0.0,130.0,0.0,,
111,0.16,3.0,2.0,0.0,16.0,12.0,0.0028326210222076043,2004.029757758816,0.0,,4,2004.579757758816,2003.6456342339318,0.0,0.38412352488421675,2.0700000000000003,2.0,,6.0,0.0,not_popped,0.97,0.0,135.0,0.0,,
112,0.13,3.0,2.0,0.0,16.0,12.0,0.000488726866478828,2006.3151784047002,0.0,,4,2006.8651784047001,2005.9543552933496,0.0,0.36082311135055534,2.0700000000000003,2.0,,7.0,0.0,not_popped,1.1,0.0,140.0,0.0,,
113,0.19,3.0,2.0,0.0,16.0,12.0,0.00046947147131959355,2008.777009362832,0.0,,4,2009.3270093628319,2008.3381452427536,0.0,0.4388641200782786,2.0700000000000003,2.0,,8.0,0.0,not_popped,1.29,0.0,145.0,0.0,,
114,0.21,3.0,2.0,0.0,16.0,12.0,0.0010133324910839292,2011.0525931337754,0.0,,4,2012.8025931337754,2010.5552757289483,0.0,0.4973174048270721,2.0600000000000005,2.0,,9.0,0.0,popped,0.0,0.0,145.0,0.0,,
115,0.06,4.0,2.0,8.0,16.0,4.0,0.0005356878664315445,2015.240186397767,4.0,,4,2015.790186397767,2014.956104348173,0.0,0.28408204959396244,2.0600000000000005,0.0,,0.0,0.0,not_popped,0.06,0.0,105.0,0.0,,
116,0.07,4.0,2.0,8.0,16.0,4.0,0.0005106142941713188,2017.1628732152742,4.0,,4,2017.7128732152742,2016.9315480395792,0.0,0.23132517569501942,2.0600000000000005,0.0,,1.0,0.0,not_popped,0.13,0.0,110.0,0.0,,
117,0.12,4.0,2.0,8.0,16.0,4.0,0.0005354108104711486,2019.3985458159273,4.0,,4,2019.9485458159272,2019.056991814102,0.0,0.3415540018252159,2.0600000000000005,0.0,,2.0,0.0,not_popped,0.25,0.0,115.0,0.0,,
118,0.16,4.0,2.0,8.0,16.0,4.0,0.0005034108369272872,2021.571627853885,4.0,,4,2022.121627853885,2021.2407556094151,0.0,0.3308722444699015,2.0600000000000005,0.0,,3.0,0.0,not_popped,0.41000000000000003,0.0,120.0,0.0,,
119,0.22,4.0,2.0,8.0,16.0,4.0,0.0005161554150845404,2023.894990494207,4.0,,4,2024.4449904942069,2023.4911849077598,0.0,0.4038055864471062,2.0600000000000005,0.0,,4.0,0.0,not_popped,0.63,0.0,125.0,0.0,,
120,0.14,4.0,2.0,8.0,16.0,4.0,0.000498700884122627,2026.1104988172478,4.0,,4,2026.6604988172478,2025.658299019942,0.0,0.452199797305866,2.0500000000000007,0.0,,5.0,0.0,not_popped,0.77,0.0,130.0,0.0,,
121,0.21,4.0,2.0,8.0,16.0,4.0,0.0014455399241342093,2028.4324865669375,4.0,,4,2028.9824865669375,2027.9170502507634,0.0,0.5154363161741458,2.040000000000001,0.0,,6.0,0.0,not_popped,0.98,0.0,135.0,0.0,,
122,0.23,4.0,2.0,8.0,16.0,4.0,0.0029100581872398834,2030.7837542922907,4.0,,4,2031.3337542922907,2030.250846821807,0.0,0.5329074704836785,2.030000000000001,0.0,,7.0,0.0,not_popped,1.21,0.0,140.0,0.0,,
123,0.15,4.0,2.0,8.0,16.0,4.0,0.0013020248918564903,2033.0825237755646,4.0,,1,2033.5825237755646,2032.7180539139986,0.0,0.3644698615660218,3.240000000000001,0.0,,8.0,0.0,not_popped,1.21,0.0,140.0,0.0,,
124,0.16,5.0,2.0,8.0,16.0,5.0,0.0005103372382109228,2035.8028485794505,5.0,,4,2036.3528485794504,2035.5185843655056,0.0,0.2842642139448799,3.240000000000001,0.0,,0.0,0.0,not_popped,0.16,0.0,105.0,0.0,,
125,0.16,5.0,2.0,8.0,16.0,5.0,0.0005489865567369634,2037.8339673760966,5.0,,4,2038.3839673760965,2037.6023447807352,0.0,0.23162259536138663,3.240000000000001,0.0,,1.0,0.0,not_popped,0.32,0.0,110.0,0.0,,
126,0.2,5.0,2.0,8.0,16.0,5.0,0.0005392895950535603,2040.0722300352027,5.0,,4,2040.6222300352026,2039.7861041431515,0.0,0.2861258920511318,3.240000000000001,0.0,,2.0,0.0,not_popped,0.52,0.0,115.0,0.0,,
127,0.23,5.0,2.0,8.0,16.0,5.0,0.0005244670966249032,2042.4383550295925,5.0,,4,2042.9883550295924,2042.1199034847555,0.0,0.31845154483698934,3.240000000000001,0.0,,3.0,0.0,not_popped,0.75,0.0,120.0,0.0,,
128,0.11,5.0,2.0,8.0,16.0,5.0,0.0004912203709181995,2044.5643651066748,5.0,,4,2045.1143651066748,2044.228770718944,0.0,0.33559438773090733,3.240000000000001,0.0,,4.0,0.0,not_popped,0.86,0.0,125.0,0.0,,
129,0.09,5.0,2.0,8.0,16.0,5.0,0.004005399268294241,2046.8339148739756,5.0,,4,2047.3839148739755,2046.4374069438004,0.0,0.3965079301751757,3.240000000000001,0.0,,5.0,0.0,not_popped,0.95,0.0,130.0,0.0,,
130,0.13,5.0,2.0,8.0,16.0,5.0,0.004473623987450992,2048.867366344007,5.0,,4,2049.4173663440074,2048.4628298837083,0.0,0.4045364602989139,3.240000000000001,0.0,,6.0,0.0,not_popped,1.08,0.0,135.0,0.0,,
131,0.14,5.0,2.0,8.0,16.0,5.0,0.00045700394912273623,2051.2256927647923,5.0,,4,2051.7756927647924,2050.804985512739,0.0,0.4207072520530346,3.240000000000001,0.0,,7.0,0.0,not_popped,1.2200000000000002,0.0,140.0,0.0,,
132,0.07,5.0,2.0,8.0,16.0,5.0,0.0006390297719462978,2053.533672145173,5.0,,1,2054.033672145173,2053.047056861321,0.0,0.48661528385218844,4.450000000000001,0.0,,8.0,0.0,not_popped,1.2200000000000002,0.0,140.0,0.0,,
133,0.23,6.0,2.0,0.0,8.0,7.0,0.0004858177780988626,2056.3869310723344,1.0,,4,2056.9369310723346,2056.147702180265,0.0,0.23922889206960463,4.450000000000001,1.0,,0.0,0.0,not_popped,0.23,0.0,105.0,0.0,,
134,0.18,6.0,2.0,0.0,8.0,7.0,0.0006035665978743054,2058.5569664634736,1.0,,4,2059.106966463474,2058.231443201571,0.0,0.3255232619026174,4.450000000000001,1.0,,1.0,0.0,not_popped,0.41000000000000003,0.0,110.0,0.0,,
135,0.16,6.0,2.0,0.0,8.0,7.0,0.0005093675420084764,2061.19101559881,1.0,,4,2061.74101559881,2060.5819130055097,0.0,0.609102593300122,4.440000000000001,1.0,,2.0,0.0,not_popped,0.5700000000000001,0.0,115.0,0.0,,
136,0.06,6.0,2.0,0.0,8.0,7.0,0.00048457102570864663,2063.2593621394044,1.0,,1,2063.7593621394044,2062.949054934119,0.0,0.3103072052854259,5.010000000000002,1.0,,3.0,0.0,not_popped,0.5700000000000001,0.0,115.0,0.0,,
137,0.16,7.0,2.0,0.0,8.0,8.0,0.0005021640847644449,2066.2628928031363,2.0,,4,2066.8128928031365,2065.8996148366837,0.0,0.36327796645264243,5.010000000000002,1.0,,0.0,0.0,not_popped,0.16,0.0,105.0,0.0,,
138,0.11,7.0,2.0,0.0,8.0,8.0,0.0004669779668802221,2068.331579152973,2.0,,4,2068.8815791529732,2068.0417346146623,0.0,0.2898445383107173,5.010000000000002,1.0,,1.0,0.0,not_popped,0.27,0.0,110.0,0.0,,
139,0.12,7.0,2.0,0.0,8.0,8.0,0.002992759417338675,2070.4503307772143,2.0,,4,2071.0003307772145,2070.0671351130304,0.0,0.38319566418385875,5.010000000000002,1.0,,2.0,0.0,not_popped,0.39,0.0,115.0,0.0,,
140,0.07,7.0,2.0,0.0,8.0,8.0,0.0005363805064462213,2073.021566319737,2.0,,1,2073.521566319737,2072.5259626450875,0.0,0.4956036746493737,5.3900000000000015,1.0,,3.0,0.0,not_popped,0.39,0.0,115.0,0.0,,
141,0.2,8.0,2.0,8.0,16.0,2.0,0.003238785186795212,2075.8678052007854,2.0,,4,2076.4178052007856,2075.3515284350933,0.0,0.516276765692055,5.380000000000002,0.0,,0.0,0.0,not_popped,0.2,0.0,105.0,0.0,,
142,0.09,8.0,2.0,8.0,16.0,2.0,0.01478481888011629,2078.0486784703626,2.0,,4,2078.5986784703628,2077.677189532379,0.0,0.3714889379834858,5.380000000000002,0.0,,1.0,0.0,not_popped,0.29000000000000004,0.0,110.0,0.0,,
143,0.17,8.0,2.0,8.0,16.0,2.0,0.00047224203171936097,2079.946177291489,2.0,,4,2080.4961772914894,2079.727395689784,0.0,0.2187816017053592,5.380000000000002,0.0,,2.0,0.0,not_popped,0.4600000000000001,0.0,115.0,0.0,,
144,0.17,8.0,2.0,8.0,16.0,2.0,0.00035380057170186774,2082.0985563163513,2.0,,4,2082.6485563163515,2081.8361313223495,0.0,0.2624249940017762,5.380000000000002,0.0,,3.0,0.0,not_popped,0.6300000000000001,0.0,120.0,0.0,,
145,0.22,8.0,2.0,8.0,16.0,2.0,0.00046559268662349496,2084.3888796075116,2.0,,4,2084.938879607512,2084.0449229756487,0.0,0.3439566318629659,5.380000000000002,0.0,,4.0,0.0,not_popped,0.8500000000000001,0.0,125.0,0.0,,
146,0.07,8.0,2.0,8.0,16.0,2.0,0.0005007788045077177,2087.0126056345443,2.0,,4,2087.5626056345445,2086.245433977821,0.0,0.7671716567233489,5.370000000000002,0.0,,5.0,0.0,not_popped,0.9200000000000002,0.0,130.0,0.0,,
147,0.11,8.0,2.0,8.0,16.0,2.0,0.0005446921877592104,2089.220142916591,2.0,,4,2089.7701429165913,2088.745881423337,0.0,0.47426149325428923,5.360000000000002,0.0,,6.0,0.0,not_popped,1.0300000000000002,0.0,135.0,0.0,,
148,0.07,8.0,2.0,8.0,16.0,2.0,0.0005318090816217591,2091.593384095542,2.0,,4,2092.1433840955424,2091.029651092238,0.0,0.5637330033041508,5.350000000000002,0.0,,7.0,0.0,not_popped,1.1000000000000003,0.0,140.0,0.0,,
149,0.05,8.0,2.0,8.0,16.0,2.0,0.0005041034771693376,2093.915586979252,2.0,,1,2094.415586979252,2093.4467902779925,0.0,0.4687967012596346,6.440000000000003,0.0,,8.0,0.0,not_popped,1.1000000000000003,0.0,140.0,0.0,,
150,0.14,9.0,2.0,0.0,16.0,15.0,0.0005103372382109228,2096.879459840449,3.0,,4,2097.429459840449,2096.5640683796487,0.0,0.3153914608001287,6.440000000000003,2.0,,0.0,0.0,not_popped,0.14,0.0,105.0,0.0,,
151,0.16,9.0,2.0,0.0,16.0,15.0,0.0005128307427639811,2099.063453315225,3.0,,4,2099.6134533152253,2098.781167835566,0.0,0.28228547965909456,6.440000000000003,2.0,,1.0,0.0,not_popped,0.30000000000000004,0.0,110.0,0.0,,
152,0.06,9.0,2.0,0.0,16.0,15.0,0.0004884498105184321,2101.576811295464,3.0,,1,2102.076811295464,2100.8816120118204,0.0,0.6951992836434329,6.730000000000003,2.0,,2.0,0.0,not_popped,0.30000000000000004,0.0,110.0,0.0,,
153,0.2,10.0,2.0,8.0,16.0,1.0,0.0005178177514153504,2104.374999515152,1.0,,4,2104.924999515152,2104.1072536597717,0.0,0.26774585538032625,6.730000000000003,0.0,,0.0,0.0,not_popped,0.2,0.0,105.0,0.0,,
154,0.16,10.0,2.0,8.0,16.0,1.0,0.0004974541320734716,2106.5076155780857,1.0,,4,2107.057615578086,2106.2576837338734,0.0,0.24993184421236947,6.730000000000003,0.0,,1.0,0.0,not_popped,0.36,0.0,110.0,0.0,,
155,0.08,10.0,2.0,8.0,16.0,1.0,0.0005198956716867542,2108.8036954012578,1.0,,4,2109.353695401258,2108.466434659933,0.0,0.3372607413248261,6.730000000000003,0.0,,2.0,0.0,not_popped,0.44,0.0,115.0,0.0,,
156,0.19,10.0,2.0,8.0,16.0,1.0,0.0004971770758857019,2111.167337003772,1.0,,4,2111.717337003772,2110.9169372118963,0.0,0.2503997918756795,6.730000000000003,0.0,,3.0,0.0,not_popped,0.63,0.0,120.0,0.0,,
157,0.11,10.0,2.0,8.0,16.0,1.0,0.0004730731998279225,2113.5124596260075,1.0,,4,2114.0624596260077,2112.992359625398,0.0,0.5201000006095455,6.720000000000003,0.0,,4.0,0.0,not_popped,0.74,0.0,125.0,0.0,,
158,0.13,10.0,2.0,8.0,16.0,1.0,0.000490666258656347,2115.7994432835794,1.0,,4,2116.3494432835796,2115.5011882933845,0.0,0.29825499019489143,6.720000000000003,0.0,,5.0,0.0,not_popped,0.87,0.0,130.0,0.0,,
159,0.1,10.0,2.0,8.0,16.0,1.0,0.0004849866097629274,2117.953003398369,1.0,,4,2118.5030033983694,2117.4515841787697,0.0,0.5014192195994838,6.7100000000000035,0.0,,6.0,0.0,not_popped,0.97,0.0,135.0,0.0,,
160,0.1,10.0,2.0,8.0,16.0,1.0,0.004600100072593705,2120.307254463234,1.0,,4,2120.8572544632343,2119.902073986155,0.0,0.4051804770792842,6.7100000000000035,0.0,,7.0,0.0,not_popped,1.07,0.0,140.0,0.0,,
161,0.08,10.0,2.0,8.0,16.0,1.0,0.0004917744829526782,2122.943961812811,1.0,,1,2123.443961812811,2122.2942149589207,0.0,0.6497468538900648,7.770000000000004,0.0,,8.0,0.0,not_popped,1.07,0.0,140.0,0.0,,
162,0.11,11.0,2.0,8.0,16.0,3.0,0.00046850177500346035,2126.2745184904434,3.0,,4,2126.8245184904436,2125.5948288042982,0.0,0.6796896861451387,7.760000000000004,0.0,,0.0,0.0,not_popped,0.11,0.0,105.0,0.0,,
163,0.24,11.0,2.0,8.0,16.0,3.0,0.0004831857456792932,2128.2856461695064,3.0,,4,2128.8356461695066,2127.978683030705,0.0,0.3069631388016205,7.760000000000004,0.0,,1.0,0.0,not_popped,0.35,0.0,110.0,0.0,,
164,0.23,11.0,2.0,8.0,16.0,3.0,0.0005097831260627572,2130.403131786142,3.0,,4,2130.953131786142,2130.0374291636954,0.0,0.36570262244640617,7.760000000000004,0.0,,2.0,0.0,not_popped,0.58,0.0,115.0,0.0,,
165,0.11,11.0,2.0,8.0,16.0,3.0,0.00040020745950641867,2132.5226026478804,3.0,,4,2133.0726026478806,2132.196169256864,0.0,0.3264333910165078,7.760000000000004,0.0,,3.0,0.0,not_popped,0.69,0.0,120.0,0.0,,
166,0.22,11.0,2.0,8.0,16.0,3.0,0.0004910818429380015,2134.706417698562,3.0,,4,2135.256417698562,2134.321615524891,0.0,0.38480217367077785,7.760000000000004,0.0,,4.0,0.0,not_popped,0.9099999999999999,0.0,125.0,0.0,,
167,0.07,11.0,2.0,8.0,16.0,3.0,0.0005095060701023613,2137.1099640990774,3.0,,4,2137.6599640990776,2136.555393200712,0.0,0.5545708983654549,7.750000000000004,0.0,,5.0,0.0,not_popped,0.98,0.0,130.0,0.0,,
168,0.07,11.0,2.0,8.0,16.0,3.0,0.0005007788045077177,2139.6825324197134,3.0,,4,2140.2325324197136,2138.9808701111383,0.0,0.7016623085751235,7.740000000000005,0.0,,6.0,0.0,not_popped,1.05,0.0,135.0,0.0,,
169,0.14,11.0,2.0,8.0,16.0,3.0,0.0005156013030500617,2141.9955136314347,3.0,,4,2142.545513631435,2141.564722508975,0.0,0.4307911224595955,7.740000000000005,0.0,,7.0,0.0,not_popped,1.19,0.0,140.0,0.0,,
170,0.11,11.0,2.0,8.0,16.0,3.0,0.0010158259956369875,2144.4190895217957,3.0,,4,2144.969089521796,2143.9318630523044,0.0,0.48722646949136106,7.730000000000005,0.0,,8.0,0.0,not_popped,1.3,0.0,145.0,0.0,,
171,0.18,11.0,2.0,8.0,16.0,3.0,0.00048166193710130756,2146.817480324865,3.0,,4,2147.367480324865,2146.382349535017,0.0,0.43513078984778986,7.730000000000005,0.0,,9.0,0.0,not_popped,1.48,0.0,150.0,0.0,,
172,0.11,11.0,2.0,8.0,16.0,3.0,0.000509921654156642,2149.3907466882106,3.0,,4,2149.9407466882108,2148.899518975292,0.0,0.49122771291877143,7.720000000000005,0.0,,10.0,0.0,not_popped,1.59,0.0,155.0,0.0,,
173,0.13,11.0,2.0,8.0,16.0,3.0,0.0005117225184676499,2151.694581171603,3.0,,1,2152.194581171603,2151.1082768277524,0.0,0.5863043438507702,9.300000000000006,0.0,,11.0,0.0,not_popped,1.59,0.0,155.0,0.0,,
174,0.1,12.0,2.0,8.0,16.0,0.0,0.0010191506680712337,2154.619485822765,0.0,,4,2155.169485822765,2154.2339206367415,0.0,0.3855651860235412,9.300000000000006,0.0,,0.0,0.0,not_popped,0.1,0.0,105.0,0.0,,
175,0.1,12.0,2.0,8.0,16.0,0.0,0.0011223540454921022,2157.473730653869,0.0,,4,2158.0237306538693,2156.5010389601753,0.0,0.9726916936938323,9.280000000000006,0.0,,1.0,0.0,not_popped,0.2,0.0,110.0,0.0,,
176,0.14,12.0,2.0,8.0,16.0,0.0,0.0010156874675431027,2159.415133577032,0.0,,4,2159.9651335770322,2159.143225508661,0.0,0.27190806837097625,9.280000000000006,0.0,,2.0,0.0,not_popped,0.34,0.0,115.0,0.0,,
177,0.17,12.0,2.0,8.0,16.0,0.0,0.00047224203171936097,2161.441546022611,0.0,,4,2161.991546022611,2161.235310626928,0.0,0.20623539568305205,9.280000000000006,0.0,,3.0,0.0,not_popped,0.51,0.0,120.0,0.0,,
178,0.17,12.0,2.0,8.0,16.0,0.0,0.00051809480760312,2163.5694316306026,0.0,,4,2164.119431630603,2163.3190416742164,0.0,0.2503899563862433,9.280000000000006,0.0,,4.0,0.0,not_popped,0.68,0.0,125.0,0.0,,
179,0.22,12.0,2.0,8.0,16.0,0.0,0.0005140774949268234,2165.5613242780337,0.0,,4,2166.111324278034,2165.28610913016,0.0,0.2752151478734959,9.280000000000006,0.0,,5.0,0.0,not_popped,0.9,0.0,130.0,0.0,,
180,0.06,12.0,2.0,8.0,16.0,0.0,0.0034662482012208784,2167.9602726563967,0.0,,4,2168.510272656397,2167.4448819159425,0.0,0.5153907404542224,9.270000000000007,0.0,,6.0,0.0,not_popped,0.96,0.0,135.0,0.0,,
181,0.19,12.0,2.0,8.0,16.0,0.0,0.0004982853001820331,2169.954794842768,0.0,,4,2170.504794842768,2169.628650698264,0.0,0.32614414450381446,9.270000000000007,0.0,,7.0,0.0,not_popped,1.15,0.0,140.0,0.0,,
182,0.17,12.0,2.0,8.0,16.0,0.0,0.002473140801384943,2172.0320020513227,0.0,,4,2172.582002051323,2171.804084803531,0.0,0.2279172477915381,9.270000000000007,0.0,,8.0,0.0,not_popped,1.3199999999999998,0.0,145.0,0.0,,
183,0.09,12.0,2.0,8.0,16.0,0.0,0.00048235457757073164,2174.647846803521,0.0,,4,2175.1978468035213,2174.171200965928,0.0,0.47664583759296875,9.260000000000007,0.0,,9.0,0.0,not_popped,1.41,0.0,150.0,0.0,,
184,0.08,12.0,2.0,8.0,16.0,0.0,0.001964604427712402,2177.0038358409674,0.0,,4,2177.5538358409676,2176.7301033585286,0.0,0.2737324824388452,9.260000000000007,0.0,,10.0,0.0,not_popped,1.49,0.0,155.0,0.0,,
185,0.13,12.0,2.0,8.0,16.0,0.0,0.00045104724404154695,2179.3755372809387,0.0,,4,2179.925537280939,2179.0972009581706,0.0,0.2783363227681548,9.260000000000007,0.0,,11.0,0.0,not_popped,1.62,0.0,160.0,0.0,,
186,0.07,12.0,2.0,8.0,16.0,0.0,0.0005096445979688724,2181.8342217135473,0.0,,1,2182.3342217135473,2181.272640050446,0.0,0.5615816631011512,10.870000000000008,0.0,,12.0,0.0,not_popped,1.62,0.0,160.0,0.0,,
187,0.19,13.0,2.0,0.0,16.0,14.0,0.0005437224917841377,2184.5884516667415,2.0,,4,2185.1384516667417,2184.3149429070604,0.0,0.2735087596811354,10.870000000000008,2.0,,0.0,0.0,not_popped,0.19,0.0,105.0,0.0,,
188,0.09,13.0,2.0,0.0,16.0,14.0,0.0005230818164818629,2186.7147796656377,2.0,,4,2187.264779665638,2186.4486803543437,0.0,0.26609931129405595,10.870000000000008,2.0,,1.0,0.0,not_popped,0.28,0.0,110.0,0.0,,
189,0.24,13.0,2.0,0.0,16.0,14.0,0.0005114454622798803,2188.863961879304,2.0,,4,2189.413961879304,2188.5157340128962,0.0,0.3482278664077967,10.870000000000008,2.0,,2.0,0.0,not_popped,0.52,0.0,115.0,0.0,,
190,0.12,13.0,2.0,0.0,16.0,14.0,0.0005534194533538539,2191.2683411102967,2.0,,4,2193.0183411102967,2190.766187138061,0.0,0.5021539722356465,10.860000000000008,2.0,,3.0,0.0,popped,0.0,0.0,115.0,0.0,,
191,0.17,14.0,2.0,0.0,16.0,13.0,0.0004963459077771404,2195.117197616875,1.0,,4,2195.667197616875,2194.858699476752,0.0,0.2584981401228106,10.860000000000008,2.0,,0.0,0.0,not_popped,0.17,0.0,105.0,0.0,,
192,0.09,14.0,2.0,0.0,16.0,13.0,0.0005154627751835505,2197.128738940615,1.0,,4,2197.6787389406154,2196.8506992063453,0.0,0.27803973426989614,10.860000000000008,2.0,,1.0,0.0,not_popped,0.26,0.0,110.0,0.0,,
193,0.07,14.0,2.0,0.0,16.0,13.0,0.0008060945681336307,2199.409740265497,1.0,,4,2199.959740265497,2198.9261487713397,0.0,0.483591494157281,10.850000000000009,2.0,,2.0,0.0,not_popped,0.33,0.0,115.0,0.0,,
194,0.09,14.0,2.0,0.0,16.0,13.0,0.0011236007976549445,2201.582287723813,1.0,,1,2202.082287723813,2201.15990899263,0.0,0.4223787311830165,11.180000000000009,2.0,,3.0,0.0,not_popped,0.33,0.0,115.0,0.0,,
195,0.24,15.0,2.0,0.0,8.0,6.0,0.00046212948609536397,2205.159133235699,0.0,,4,2205.709133235699,2204.060527049259,0.0,1.0986061864400654,11.160000000000009,1.0,,0.0,0.0,not_popped,0.24,0.0,105.0,0.0,,
196,0.15,15.0,2.0,0.0,8.0,6.0,0.0004973156039795867,2207.2715024583185,0.0,,4,2207.8215024583187,2206.9777465812667,0.0,0.29375587705180806,11.160000000000009,1.0,,1.0,0.0,not_popped,0.39,0.0,110.0,0.0,,
197,0.17,15.0,2.0,0.0,8.0,6.0,0.0023354439463219023,2209.518721369721,0.0,,4,2211.268721369721,2209.0781852164,0.0,0.4405361533208634,11.15000000000001,1.0,,2.0,0.0,popped,0.0,0.0,110.0,0.0,,
198,0.07,16.0,2.0,0.0,16.0,16.0,0.0005167095273463929,2213.6515333112798,4.0,,4,2214.20153331128,2213.270735290125,0.0,0.3807980211549875,11.15000000000001,2.0,,0.0,0.0,not_popped,0.07,0.0,105.0,0.0,,
199,0.08,16.0,2.0,0.0,16.0,16.0,0.00045811217319169373,2215.4825974170617,4.0,,4,2216.032597417062,2215.237743456075,0.0,0.24485396098680212,11.15000000000001,2.0,,1.0,0.0,not_popped,0.15000000000000002,0.0,110.0,0.0,,
200,0.15,16.0,2.0,0.0,16.0,16.0,0.0005100601822505269,2217.6508536927968,4.0,,4,2218.200853692797,2217.221468075663,0.0,0.429385617133903,11.15000000000001,2.0,,2.0,0.0,not_popped,0.30000000000000004,0.0,115.0,0.0,,
201,0.13,16.0,2.0,0.0,16.0,16.0,0.000491913011046563,2219.9071819299616,4.0,,4,2220.4571819299617,2219.6302869912765,0.0,0.27689493868501813,11.15000000000001,2.0,,3.0,0.0,not_popped,0.43000000000000005,0.0,120.0,0.0,,
202,0.16,16.0,2.0,0.0,16.0,16.0,0.0010167956916120602,2222.2782426778244,4.0,,4,2222.8282426778246,2221.8390548177554,0.0,0.43918786006906885,11.14000000000001,2.0,,4.0,0.0,not_popped,0.5900000000000001,0.0,125.0,0.0,,
203,0.15,16.0,2.0,0.0,16.0,16.0,0.0005052117012382951,2224.568430488577,4.0,,1,2225.068430488577,2224.1561634719333,0.0,0.4122670166439093,11.73000000000001,2.0,,5.0,0.0,not_popped,0.5900000000000001,0.0,125.0,0.0,,
204,0.25,17.0,2.0,0.0,8.0,10.0,0.0003925884182081063,2227.6241551868497,4.0,,4,2228.17415518685,2227.090083388329,0.0,0.5340717985209267,11.72000000000001,1.0,,0.0,0.0,not_popped,0.25,0.0,105.0,0.0,,
205,0.06,17.0,2.0,0.0,8.0,10.0,0.0004660082706777757,2229.6005228601716,4.0,,4,2230.150522860172,2229.3572213827424,0.0,0.24330147742921326,11.72000000000001,1.0,,1.0,0.0,not_popped,0.31,0.0,110.0,0.0,,
206,0.11,17.0,2.0,0.0,8.0,10.0,0.000513661910645169,2231.7918901816324,4.0,,4,2232.3418901816326,2231.4742903070833,0.0,0.3175998745491597,11.72000000000001,1.0,,2.0,0.0,not_popped,0.42,0.0,115.0,0.0,,
207,0.24,17.0,2.0,0.0,8.0,10.0,0.00040865766914066626,2234.1698597376057,4.0,,4,2234.719859737606,2233.5163856487184,0.0,0.6534740888873785,11.71000000000001,1.0,,3.0,0.0,not_popped,0.6599999999999999,0.0,120.0,0.0,,
208,0.12,17.0,2.0,0.0,8.0,10.0,0.000830752556112202,2236.358484065676,4.0,,1,2236.858484065676,2236.025297156463,0.0,0.3331869092130546,12.37000000000001,1.0,,4.0,0.0,not_popped,0.6599999999999999,0.0,120.0,0.0,,
