,resp_acc,appearL_time,appearL_error,disappearL,cond_strength,img_R,pair_inds_0,pair_inds_1,lag_L,eeg_pulse_time,lag_R,num_trial,cond_trial,resp_rt,pressed,press_time,press_error,img_L,log_time,resp_correct,appearR_time,appearR_error,disappearR,block,fmri_tr_time,log_num,fmri_tr_time_error,fmri_tr_time_time,press,disappearL_time,disappearL_error,disappearR_time,disappearR_error
0,True,327.3111779924408,0.0,,weak,tasks\AssBind\stim\Acartofgroce3.jpg,22.0,23.0,,,,1.0,new,0.7190445278937432,1,328.0302225203345,0.0005079822617517493,tasks\AssBind\stim\AWEIGHTS8.jpg,329.79817232316725,new,327.3111779924408,0.0,,0.0,,0.0,,,,,,,
1,True,330.7452209217211,0.0,,med,tasks\AssBind\stim\AWOODENF3.jpg,2.0,3.0,,,,2.0,new,0.7494109788445371,1,331.49463190056565,0.0004877571703616468,tasks\AssBind\stim\ABOWLCARV.jpg,333.23726830689805,new,330.7452209217211,0.0,,0.0,,0.0,,,,,,,
2,True,334.13752341816235,0.0,,strong,tasks\AssBind\stim\ABRANCHES.jpg,14.0,15.0,,,,3.0,new,0.9477272815427114,1,335.08525069970506,0.0008350469249762682,tasks\AssBind\stim\22827540.thl.jpg,336.633963474077,new,334.13752341816235,0.0,,0.0,,0.0,,,,,,,
3,True,337.6215622193076,0.0,,med,tasks\AssBind\stim\AWOODENF3.jpg,2.0,3.0,2.0,,2.0,4.0,old 1,0.5585850248990596,4,338.18014724420664,0.000507982261780171,tasks\AssBind\stim\ABOWLCARV.jpg,340.10626353656994,old,337.6215622193076,0.0,,0.0,,0.0,,,,,,,
4,True,340.7722034101167,0.0,,weak,tasks\AssBind\stim\Alogholder.jpg,18.0,19.0,,,,5.0,new,0.6584451670066187,1,341.4306485771233,0.0004855407219963581,tasks\AssBind\stim\ABOX8.jpg,343.2646716437098,new,340.7722034101167,0.0,,0.0,,0.0,,,,,,,
5,True,343.86446889187,0.0,,strong,tasks\AssBind\stim\ABOOK23.jpg,10.0,11.0,,,,6.0,new,0.43216670573161764,1,344.2966355976016,0.0005912376037997547,tasks\AssBind\stim\8063317.thl.jpg,346.36154727648744,new,343.86446889187,0.0,,0.0,,0.0,,,,,,,
6,True,347.19856108171547,0.0,,strong,tasks\AssBind\stim\ABOOK23.jpg,10.0,11.0,1.0,,1.0,7.0,old 1,0.7573350588383505,4,347.9558961405538,0.0004980082440795286,tasks\AssBind\stim\8063317.thl.jpg,349.6877258912386,old,347.19856108171547,0.0,,0.0,,0.0,,,,,,,
7,True,350.6409023937088,0.0,,strong,tasks\AssBind\stim\ABRANCHES.jpg,14.0,15.0,5.0,,5.0,8.0,old 1,0.6695492963053198,4,351.31045169001413,0.0005620081908830343,tasks\AssBind\stim\22827540.thl.jpg,353.1333240725836,old,350.6409023937088,0.0,,0.0,,0.0,,,,,,,
8,True,353.76650076550584,0.0,,med,tasks\AssBind\stim\26421583.thl.jpg,0.0,1.0,,,,9.0,new,0.7180971347418108,1,354.48459790024765,0.0004950991555858764,tasks\AssBind\stim\AHAMPER.jpg,356.25806781430055,new,353.76650076550584,0.0,,0.0,,0.0,,,,,,,
9,True,357.00040339360413,0.0,,med,tasks\AssBind\stim\26421583.thl.jpg,0.0,1.0,1.0,,1.0,10.0,old 1,0.6871857145468994,4,357.68758910815103,0.00045326369252052245,tasks\AssBind\stim\AHAMPER.jpg,359.49815996765966,old,357.00040339360413,0.0,,0.0,,0.0,,,,,,,
10,True,360.30938377748186,0.0,,med,tasks\AssBind\stim\ASHINPAD3.jpg,4.0,5.0,,,,11.0,new,0.5800018728988903,1,360.88938565038075,0.0005410904593645682,tasks\AssBind\stim\dragon.jpg,362.80935404257576,new,360.30938377748186,0.0,,0.0,,0.0,,,,,,,
11,True,363.62679497686304,0.0,,med,tasks\AssBind\stim\26421583.thl.jpg,2.0,1.0,8.0,,2.0,12.0,recombined,1.029725066202559,1,364.6565200430656,0.0005230818163113327,tasks\AssBind\stim\ABOWLCARV.jpg,366.114428785739,new,363.62679497686304,0.0,,0.0,,0.0,,,,,,,
12,False,367.01907669410076,0.0,,strong,tasks\AssBind\stim\ABOOK23.jpg,10.0,11.0,6.0,,6.0,13.0,old 2,1.3021546925813823,1,368.32123138668214,0.0004971770759425453,tasks\AssBind\stim\8063317.thl.jpg,369.51473614164564,old,367.01907669410076,0.0,,0.0,,0.0,,,,,,,
13,True,370.3530857671322,0.0,,weak,tasks\AssBind\stim\AWOODMAS9.jpg,16.0,17.0,,,,14.0,new,0.6769566667719005,1,371.0300424339041,0.0004852636659222753,tasks\AssBind\stim\ADECOSPO4.jpg,372.84258656298186,new,370.3530857671322,0.0,,0.0,,0.0,,,,,,,
14,True,373.66206836745835,0.0,,weak,tasks\AssBind\stim\Acartofgroce3.jpg,16.0,23.0,1.0,,14.0,15.0,recombined,0.8289226010686548,1,374.490990968527,0.0004906662588268773,tasks\AssBind\stim\ADECOSPO4.jpg,376.1559532785419,new,373.66206836745835,0.0,,0.0,,0.0,,,,,,,
15,True,376.82937752709745,0.0,,strong,tasks\AssBind\stim\ABRANCHES.jpg,14.0,15.0,8.0,,8.0,16.0,old 2,0.9471275937294195,4,377.77650512082687,0.0004650385745037511,tasks\AssBind\stim\22827540.thl.jpg,379.3228929218719,old,376.82937752709745,0.0,,0.0,,0.0,,,,,,,
16,True,380.1050288997162,0.0,,med,tasks\AssBind\stim\ASHINPAD3.jpg,4.0,5.0,6.0,,6.0,17.0,old 1,1.1037270133524544,4,381.20875591306867,0.0004981467720881483,tasks\AssBind\stim\dragon.jpg,382.59910960589013,old,380.1050288997162,0.0,,0.0,,0.0,,,,,,,
17,True,383.37236692859545,0.0,,med,tasks\AssBind\stim\APOTWHOLE.jpg,6.0,7.0,,,,18.0,new,0.6825450257634316,1,384.0549119543589,0.0007339214679120687,tasks\AssBind\stim\Abrooch104.jpg,385.8703277064747,new,383.37236692859545,0.0,,0.0,,0.0,,,,,,,
18,True,386.5063293453886,0.0,,strong,tasks\AssBind\stim\Aoilcan11.jpg,12.0,13.0,,,,19.0,new,0.6609957449732065,1,387.1673250903618,0.00045672689310549686,tasks\AssBind\stim\Adog122.jpg,388.9938477630262,new,386.5063293453886,0.0,,0.0,,0.0,,,,,,,
19,True,389.8986517898652,0.0,,strong,tasks\AssBind\stim\Aoilcan11.jpg,12.0,13.0,1.0,,1.0,20.0,old 1,0.6442900965207627,4,390.54294188638596,0.000495237683594496,tasks\AssBind\stim\Adog122.jpg,392.39398036966946,old,389.8986517898652,0.0,,0.0,,0.0,,,,,,,
20,True,393.0492577945563,0.0,,strong,tasks\AssBind\stim\26684634.thl.jpg,8.0,9.0,,,,21.0,new,0.5074868855519981,1,393.5567446801083,0.000497315603951165,tasks\AssBind\stim\9815629.thl.jpg,395.54334731737134,new,393.0492577945563,0.0,,0.0,,0.0,,,,,,,
21,True,396.1665721905547,0.0,,med,tasks\AssBind\stim\AWOODENF3.jpg,4.0,3.0,5.0,,18.0,22.0,recombined,0.7720967435386683,1,396.93866893409336,0.0008998780399451789,tasks\AssBind\stim\dragon.jpg,398.6503988796384,new,396.1665721905547,0.0,,0.0,,0.0,,,,,,,
22,True,399.2171540359586,0.0,,weak,tasks\AssBind\stim\Acabinetwithm.jpg,20.0,21.0,,,,23.0,new,0.6907242743763504,1,399.9078783103349,0.0004984238281622311,tasks\AssBind\stim\ATRIANGL2.jpg,401.713636275491,new,399.2171540359586,0.0,,0.0,,0.0,,,,,,,
23,True,402.54286999034184,0.0,,med,tasks\AssBind\stim\AWOODENF3.jpg,2.0,3.0,12.0,,2.0,24.0,old 2,0.8568796341086795,4,403.3997496244505,0.0005093675420084764,tasks\AssBind\stim\ABOWLCARV.jpg,405.03180130175133,old,402.54286999034184,0.0,,0.0,,0.0,,,,,,,
24,True,405.8851899136084,0.0,,weak,tasks\AssBind\stim\Acabinetwithm.jpg,18.0,21.0,20.0,,2.0,25.0,recombined,0.9632377102093983,1,406.84842762381777,0.0004978697160424872,tasks\AssBind\stim\ABOX8.jpg,408.37371525500237,new,405.8851899136084,0.0,,0.0,,0.0,,,,,,,
25,True,409.14415863342657,0.0,,strong,tasks\AssBind\stim\Aoilcan11.jpg,12.0,13.0,6.0,,6.0,26.0,old 2,0.8312196727525247,4,409.9753783061791,0.0005020255567558252,tasks\AssBind\stim\Adog122.jpg,411.64361590648804,old,409.14415863342657,0.0,,0.0,,0.0,,,,,,,
26,True,412.23647259998813,0.0,,strong,tasks\AssBind\stim\Aoilcan11.jpg,10.0,13.0,14.0,,1.0,27.0,recombined,0.6924788703205991,1,412.92895147030873,0.0005047961172408577,tasks\AssBind\stim\8063317.thl.jpg,414.7262614270731,new,412.23647259998813,0.0,,0.0,,0.0,,,,,,,
27,True,415.57044898040607,0.0,,strong,tasks\AssBind\stim\26684634.thl.jpg,8.0,9.0,7.0,,7.0,28.0,old 1,0.981080673733743,4,416.5515296541398,0.0005142160228217563,tasks\AssBind\stim\9815629.thl.jpg,418.0657232045156,old,415.57044898040607,0.0,,0.0,,0.0,,,,,,,
28,True,419.0461489486554,0.0,,strong,tasks\AssBind\stim\ABOOK23.jpg,12.0,11.0,3.0,,16.0,29.0,recombined,1.0338626212051167,1,420.0800115698605,0.0004948220995402153,tasks\AssBind\stim\Adog122.jpg,421.5296256853232,new,419.0461489486554,0.0,,0.0,,0.0,,,,,,,
29,True,422.0634112027058,0.0,,strong,tasks\AssBind\stim\26684634.thl.jpg,8.0,9.0,2.0,,2.0,30.0,old 2,0.8148388725148834,4,422.8782500752207,0.0005290385213356785,tasks\AssBind\stim\9815629.thl.jpg,424.55487910854265,old,422.0634112027058,0.0,,0.0,,0.0,,,,,,,
30,True,425.2890830497665,0.0,,weak,tasks\AssBind\stim\Alogholder.jpg,20.0,19.0,8.0,,26.0,31.0,recombined,1.7380198194813374,1,427.0271028692478,0.0004752896482500546,tasks\AssBind\stim\ATRIANGL2.jpg,427.774643845726,new,425.2890830497665,0.0,,0.0,,0.0,,,,,,,
31,True,428.7647431219451,0.0,,weak,tasks\AssBind\stim\Alogholder.jpg,18.0,19.0,7.0,,1.0,32.0,old 1,1.5261968959748629,4,430.29094001792,0.0004974541319882064,tasks\AssBind\stim\ABOX8.jpg,431.249899265652,old,428.7647431219451,0.0,,0.0,,0.0,,,,,,,
32,True,431.9570474469562,0.0,,weak,tasks\AssBind\stim\Alogholder.jpg,18.0,19.0,1.0,,1.0,33.0,old 2,0.6165404399317822,4,432.573587886888,0.0004667009108061393,tasks\AssBind\stim\ABOX8.jpg,434.45335979167606,old,431.9570474469562,0.0,,0.0,,0.0,,,,,,,
33,True,435.1160474186965,0.0,,strong,tasks\AssBind\stim\ABRANCHES.jpg,8.0,15.0,4.0,,18.0,34.0,recombined,0.841561482338534,1,435.95760890103503,0.000510198710117038,tasks\AssBind\stim\9815629.thl.jpg,437.61245104251526,new,435.1160474186965,0.0,,0.0,,0.0,,,,,,,
34,True,438.2583054476422,0.0,,strong,tasks\AssBind\stim\26684634.thl.jpg,14.0,9.0,19.0,,5.0,35.0,recombined,0.8440505538627576,1,439.102356001505,0.0005096445980257158,tasks\AssBind\stim\22827540.thl.jpg,440.74932862735704,new,438.2583054476422,0.0,,0.0,,0.0,,,,,,,
35,True,441.6089924635214,0.0,,weak,tasks\AssBind\stim\AWOODMAS9.jpg,22.0,17.0,35.0,,22.0,36.0,recombined,1.0227996347293242,1,442.63179209825074,0.0004608827338188348,tasks\AssBind\stim\AWEIGHTS8.jpg,444.09589195870643,new,441.6089924635214,0.0,,0.0,,0.0,,,,,,,
36,True,444.8263396075446,0.0,,med,tasks\AssBind\stim\APOTWHOLE.jpg,6.0,7.0,19.0,,19.0,37.0,old 1,0.7651323856907766,4,445.59147199323536,0.0008128824412381164,tasks\AssBind\stim\Abrooch104.jpg,447.31060792844926,old,444.8263396075446,0.0,,0.0,,0.0,,,,,,,
37,True,448.1186320745569,0.0,,weak,tasks\AssBind\stim\AWOODMAS9.jpg,16.0,17.0,23.0,,2.0,38.0,old 1,0.7727104226822803,4,448.8913424972392,0.00042528103179506616,tasks\AssBind\stim\ADECOSPO4.jpg,450.6092767766822,old,448.1186320745569,0.0,,0.0,,0.0,,,,,,,
38,False,451.16090473206185,0.0,,weak,tasks\AssBind\stim\Acabinetwithm.jpg,20.0,21.0,8.0,,14.0,39.0,old 1,1.399203824038409,1,452.56010855610026,0.0005282073531702736,tasks\AssBind\stim\ATRIANGL2.jpg,453.65416693534775,old,451.16090473206185,0.0,,0.0,,0.0,,,,,,,
39,True,454.56990234882574,0.0,,weak,tasks\AssBind\stim\AWOODMAS9.jpg,16.0,17.0,2.0,,2.0,40.0,old 2,0.6651057328991783,4,455.2350080817249,0.000531947609800909,tasks\AssBind\stim\ADECOSPO4.jpg,457.05800267915834,old,454.56990234882574,0.0,,0.0,,0.0,,,,,,,
40,True,457.8122344071472,0.0,,med,tasks\AssBind\stim\APOTWHOLE.jpg,0.0,7.0,31.0,,4.0,41.0,recombined,0.9187077385632278,1,458.7309421457104,0.0005002246924448173,tasks\AssBind\stim\AHAMPER.jpg,460.300726603642,new,457.8122344071472,0.0,,0.0,,0.0,,,,,,,
41,False,460.99620239276686,0.0,,med,tasks\AssBind\stim\26421583.thl.jpg,0.0,1.0,1.0,,30.0,42.0,old 2,1.661450948058075,1,462.65765334082494,0.0004423199786742771,tasks\AssBind\stim\AHAMPER.jpg,463.4797352596872,old,460.99620239276686,0.0,,0.0,,0.0,,,,,,,
42,True,464.2718340944063,0.0,,weak,tasks\AssBind\stim\Acabinetwithm.jpg,20.0,21.0,4.0,,4.0,43.0,old 2,1.1378218075247446,4,465.40965590193105,0.0006965189016057138,tasks\AssBind\stim\ATRIANGL2.jpg,466.76865831041863,old,464.2718340944063,0.0,,0.0,,0.0,,,,,,,
43,True,467.67253388256927,0.0,,med,tasks\AssBind\stim\ASHINPAD3.jpg,6.0,5.0,7.0,,27.0,44.0,recombined,1.0528595231643294,1,468.7253934057336,0.0005142160228217563,tasks\AssBind\stim\Abrooch104.jpg,470.16071970718883,new,467.67253388256927,0.0,,0.0,,0.0,,,,,,,
44,False,471.00654101620836,0.0,,weak,tasks\AssBind\stim\Acartofgroce3.jpg,22.0,23.0,9.0,,30.0,45.0,old 1,0.8609638558222059,1,471.86750487203057,0.000497038547905504,tasks\AssBind\stim\AWEIGHTS8.jpg,473.49690414617965,old,471.00654101620836,0.0,,0.0,,0.0,,,,,,,
45,True,474.09881203908265,0.0,,med,tasks\AssBind\stim\ASHINPAD3.jpg,4.0,5.0,24.0,,2.0,46.0,old 2,0.7807100004488348,4,474.8795220395315,0.0008415577420919362,tasks\AssBind\stim\dragon.jpg,476.5983478086585,old,474.09881203908265,0.0,,0.0,,0.0,,,,,,,
46,True,477.54119629476327,0.0,,med,tasks\AssBind\stim\APOTWHOLE.jpg,6.0,7.0,3.0,,6.0,47.0,old 2,0.9861135353514783,4,478.52730983011475,0.0004844324978137138,tasks\AssBind\stim\Abrooch104.jpg,480.02611844619366,old,477.54119629476327,0.0,,0.0,,0.0,,,,,,,
47,True,480.73347374533785,0.0,,weak,tasks\AssBind\stim\Acartofgroce3.jpg,22.0,23.0,3.0,,3.0,48.0,old 2,0.9832846545859297,4,481.7167583999238,0.0010658346119498674,tasks\AssBind\stim\AWEIGHTS8.jpg,483.2230024377913,old,480.73347374533785,0.0,,0.0,,0.0,,,,,,,
48,True,1092.0805091625205,0.0,,strong,tasks\AssBind\stim\Ahippopotamu4.jpg,10.0,11.0,,,,1.0,new,0.7091343716285792,1,1092.789643534149,0.0007394625888537121,tasks\AssBind\stim\AKNIFECOL.jpg,1094.5772116801534,new,1092.0805091625205,0.0,,1.0,,0.0,,,,,,,
49,True,1095.5144506892877,0.0,,strong,tasks\AssBind\stim\Ahippopotamu4.jpg,10.0,11.0,1.0,,1.0,2.0,old 1,0.828541371948404,4,1096.3429920612361,0.0005214194799236793,tasks\AssBind\stim\AKNIFECOL.jpg,1098.0142585557996,old,1095.5144506892877,0.0,,1.0,,0.0,,,,,,,
50,True,1098.7484561051792,0.0,,strong,tasks\AssBind\stim\Ahippopotamu4.jpg,10.0,11.0,1.0,,1.0,3.0,old 2,0.6476234963477054,4,1099.396079601527,0.0010217827004908031,tasks\AssBind\stim\AKNIFECOL.jpg,1101.2328744902732,old,1098.7484561051792,0.0,,1.0,,0.0,,,,,,,
51,True,1101.9240672492601,0.0,,med,tasks\AssBind\stim\Asaxophone.jpg,6.0,7.0,,,,4.0,new,1.0227350806703726,1,1102.9468023299305,0.00048304721758540836,tasks\AssBind\stim\Acastle22.jpg,1104.4213607031397,new,1101.9240672492601,0.0,,1.0,,0.0,,,,,,,
52,True,1105.3581262477912,0.0,,strong,tasks\AssBind\stim\Hammock.jpg,12.0,13.0,,,,5.0,new,0.46543379496392845,1,1105.8235600427552,0.0004647615184012466,tasks\AssBind\stim\ADOORHAN8.jpg,1107.8457959010152,new,1105.3581262477912,0.0,,1.0,,0.0,,,,,,,
53,True,1108.7087722593753,0.0,,med,tasks\AssBind\stim\Asaxophone.jpg,6.0,7.0,2.0,,2.0,6.0,old 1,0.7070358106022923,4,1109.4158080699776,0.0004960688517030576,tasks\AssBind\stim\Acastle22.jpg,1111.194373427722,old,1108.7087722593753,0.0,,1.0,,0.0,,,,,,,
54,True,1112.051156736701,0.0,,strong,tasks\AssBind\stim\Hammock.jpg,12.0,13.0,2.0,,2.0,7.0,old 1,0.808097960368741,4,1112.8592546970697,0.000688484276224699,tasks\AssBind\stim\ADOORHAN8.jpg,1114.5315223244288,old,1112.051156736701,0.0,,1.0,,0.0,,,,,,,
55,True,1115.2600708487723,0.0,,weak,tasks\AssBind\stim\potato.jpg,20.0,21.0,,,,8.0,new,0.4594276354539488,1,1115.7194984842263,0.00047625934439565754,tasks\AssBind\stim\Agardeningshe.jpg,1117.758268242903,new,1115.2600708487723,0.0,,1.0,,0.0,,,,,,,
56,True,1118.46905810364,0.0,,weak,tasks\AssBind\stim\Aleatherpenc9.jpg,22.0,23.0,,,,9.0,new,0.49957651983254436,1,1118.9686346234726,0.0004769519845240211,tasks\AssBind\stim\22806086.thl.jpg,1120.9623607553594,new,1118.46905810364,0.0,,1.0,,0.0,,,,,,,
57,True,1121.7280725377059,0.0,,strong,tasks\AssBind\stim\Hammock.jpg,12.0,13.0,3.0,,3.0,10.0,old 2,0.67893540105797,4,1122.4070079387639,0.0005107528221515167,tasks\AssBind\stim\ADOORHAN8.jpg,1124.2138827326364,old,1121.7280725377059,0.0,,1.0,,0.0,,,,,,,
58,True,1124.945318833328,0.0,,med,tasks\AssBind\stim\ASAFE.jpg,0.0,1.0,,,,11.0,new,0.4611779370295608,1,1125.4064967703575,0.00046032862167066924,tasks\AssBind\stim\AANTFRYI2.jpg,1127.44305089217,new,1124.945318833328,0.0,,1.0,,0.0,,,,,,,
59,True,1128.4377773677347,0.0,,med,tasks\AssBind\stim\ASAFE.jpg,0.0,1.0,1.0,,1.0,12.0,old 1,0.5420221988388221,4,1128.9797995665735,0.0004909433148441167,tasks\AssBind\stim\AANTFRYI2.jpg,1130.9280954700218,old,1128.4377773677347,0.0,,1.0,,0.0,,,,,,,
60,True,1131.4716247508572,0.0,,strong,tasks\AssBind\stim\Ahippopotamu4.jpg,12.0,11.0,3.0,,10.0,13.0,recombined,0.8709769384088304,1,1132.342601689266,0.0005222506481459277,tasks\AssBind\stim\ADOORHAN8.jpg,1133.9690404253374,new,1131.4716247508572,0.0,,1.0,,0.0,,,,,,,
61,True,1134.4889199745774,0.0,,med,tasks\AssBind\stim\ATOOHOLDE.jpg,4.0,5.0,,,,14.0,new,0.7439212518056593,1,1135.232841226383,0.0005280688251332322,tasks\AssBind\stim\sardines.jpg,1136.984553671887,new,1134.4889199745774,0.0,,1.0,,0.0,,,,,,,
62,True,1137.6228774043616,0.0,,med,tasks\AssBind\stim\Asaxophone.jpg,0.0,7.0,3.0,,9.0,15.0,recombined,0.8772113921013442,1,1138.500088796463,0.0005093675420084764,tasks\AssBind\stim\AANTFRYI2.jpg,1140.116352142604,new,1137.6228774043616,0.0,,1.0,,0.0,,,,,,,
63,False,1140.931873580434,0.0,,weak,tasks\AssBind\stim\Aleatherpenc9.jpg,20.0,23.0,8.0,,7.0,16.0,recombined,1.0758609932238414,4,1142.007734573658,0.0005286229372813978,tasks\AssBind\stim\Agardeningshe.jpg,1143.4179608740972,new,1140.931873580434,0.0,,1.0,,0.0,,,,,,,
64,True,1144.3242010119195,0.0,,med,tasks\AssBind\stim\Athimble2.jpg,2.0,3.0,,,,17.0,new,0.6284898672290637,1,1144.9526908791486,0.0007553933115787004,tasks\AssBind\stim\ACEILHOOK.jpg,1146.8228974782019,new,1144.3242010119195,0.0,,1.0,,0.0,,,,,,,
65,True,1147.5498590061777,0.0,,weak,tasks\AssBind\stim\potato.jpg,22.0,21.0,9.0,,10.0,18.0,recombined,0.7199362327803556,1,1148.269795238958,0.0005147701349415001,tasks\AssBind\stim\22806086.thl.jpg,1150.033760645529,new,1147.5498590061777,0.0,,1.0,,0.0,,,,,,,
66,True,1150.8339489518692,0.0,,weak,tasks\AssBind\stim\potato.jpg,20.0,21.0,3.0,,1.0,19.0,old 1,0.7071367975315752,4,1151.5410857494007,0.0005239129844767376,tasks\AssBind\stim\Agardeningshe.jpg,1153.3289942028255,old,1150.8339489518692,0.0,,1.0,,0.0,,,,,,,
67,True,1154.0845170552932,0.0,,weak,tasks\AssBind\stim\potato.jpg,20.0,21.0,1.0,,1.0,20.0,old 2,0.6494028888080265,4,1154.7339199441012,0.000510198710117038,tasks\AssBind\stim\Agardeningshe.jpg,1156.5681911467493,old,1154.0845170552932,0.0,,1.0,,0.0,,,,,,,
68,False,1157.1100524799565,0.0,,weak,tasks\AssBind\stim\Aleatherpenc9.jpg,22.0,23.0,3.0,,5.0,21.0,old 1,1.3575711660012075,1,1158.4676236459577,0.00048637189013334137,tasks\AssBind\stim\22806086.thl.jpg,1159.6087059669287,old,1157.1100524799565,0.0,,1.0,,0.0,,,,,,,
69,True,1160.2523911322116,0.0,,med,tasks\AssBind\stim\Athimble2.jpg,2.0,3.0,5.0,,5.0,22.0,old 1,0.7930398256985427,4,1161.0454309579102,0.0004797225449237885,tasks\AssBind\stim\ACEILHOOK.jpg,1162.7362907906956,old,1160.2523911322116,0.0,,1.0,,0.0,,,,,,,
70,True,1163.669736170609,0.0,,med,tasks\AssBind\stim\Athimble2.jpg,6.0,3.0,17.0,,1.0,23.0,recombined,0.7802898449538134,1,1164.4500260155628,0.0005178177514153504,tasks\AssBind\stim\Acastle22.jpg,1166.1564910450415,new,1163.669736170609,0.0,,1.0,,0.0,,,,,,,
71,True,1166.870355501696,0.0,,weak,tasks\AssBind\stim\AWILDPIG.jpg,16.0,17.0,,,,24.0,new,0.6980963201970098,1,1167.568451821893,0.0005370731466882717,tasks\AssBind\stim\26431734.thl.jpg,1169.3574019287794,new,1166.870355501696,0.0,,1.0,,0.0,,,,,,,
72,True,1170.1376971323036,0.0,,weak,tasks\AssBind\stim\Aleatherpenc9.jpg,22.0,23.0,4.0,,4.0,25.0,old 2,0.9462159408074058,4,1171.083913073111,0.000497038547905504,tasks\AssBind\stim\22806086.thl.jpg,1172.6268566559334,old,1170.1376971323036,0.0,,1.0,,0.0,,,,,,,
73,True,1173.229967878122,0.0,,med,tasks\AssBind\stim\Asaxophone.jpg,6.0,7.0,3.0,,11.0,26.0,old 2,0.9057771172761022,4,1174.135744995398,0.0007156357688700155,tasks\AssBind\stim\Acastle22.jpg,1175.7261389398027,old,1173.229967878122,0.0,,1.0,,0.0,,,,,,,
74,True,1176.2472268074998,0.0,,med,tasks\AssBind\stim\ATOOHOLDE.jpg,4.0,5.0,13.0,,13.0,27.0,old 1,0.9162376453782599,4,1177.163464452878,0.0004274974801319331,tasks\AssBind\stim\sardines.jpg,1178.7395743623943,old,1176.2472268074998,0.0,,1.0,,0.0,,,,,,,
75,True,1179.56452524507,0.0,,med,tasks\AssBind\stim\ATOOHOLDE.jpg,2.0,5.0,6.0,,1.0,28.0,recombined,0.7428024994887892,1,1180.3073277445587,0.0005144930788674174,tasks\AssBind\stim\ACEILHOOK.jpg,1182.0599762326485,new,1179.56452524507,0.0,,1.0,,0.0,,,,,,,
76,True,1182.865208908571,0.0,,med,tasks\AssBind\stim\Athimble2.jpg,2.0,3.0,1.0,,6.0,29.0,old 2,0.9642926011072177,4,1183.8295015096783,0.0005007788046214046,tasks\AssBind\stim\ACEILHOOK.jpg,1185.3579822694396,old,1182.865208908571,0.0,,1.0,,0.0,,,,,,,
77,True,1186.190870559969,0.0,,strong,tasks\AssBind\stim\APETROL2.jpg,14.0,15.0,,,,30.0,new,0.7743982481192688,1,1186.9652688080882,0.0004665623828259413,tasks\AssBind\stim\Acandle109.jpg,1188.678082676117,new,1186.190870559969,0.0,,1.0,,0.0,,,,,,,
78,True,1189.641626341159,0.0,,weak,tasks\AssBind\stim\Acleaningpro6.jpg,18.0,19.0,,,,31.0,new,0.5691382282486757,1,1190.2107645694077,0.0005078437337715513,tasks\AssBind\stim\APILLS9.jpg,1192.1390212340307,new,1189.641626341159,0.0,,1.0,,0.0,,,,,,,
79,True,1192.9339290592452,0.0,,strong,tasks\AssBind\stim\APETROL2.jpg,14.0,15.0,2.0,,2.0,32.0,old 1,1.4702443191042676,4,1194.4041733783495,0.0004910818429380015,tasks\AssBind\stim\Acandle109.jpg,1195.4197559931508,old,1192.9339290592452,0.0,,1.0,,0.0,,,,,,,
80,True,1196.1012274136983,0.0,,med,tasks\AssBind\stim\ASAFE.jpg,4.0,1.0,6.0,,21.0,33.0,recombined,0.9929683175328137,1,1197.0941957312311,0.0004926056511749266,tasks\AssBind\stim\sardines.jpg,1198.5923405138467,new,1196.1012274136983,0.0,,1.0,,0.0,,,,,,,
81,True,1199.5435606910664,0.0,,weak,tasks\AssBind\stim\Acleaningpro6.jpg,16.0,19.0,10.0,,3.0,34.0,recombined,0.8834361488322884,1,1200.4269968398987,0.00046739355093450285,tasks\AssBind\stim\26431734.thl.jpg,1202.0293209374172,new,1199.5435606910664,0.0,,1.0,,0.0,,,,,,,
82,True,1202.8358816948517,0.0,,strong,tasks\AssBind\stim\APETROL2.jpg,14.0,15.0,3.0,,3.0,35.0,old 2,0.9522347063675625,4,1203.7881164012192,0.0009026486003449463,tasks\AssBind\stim\Acandle109.jpg,1205.3217003106581,old,1202.8358816948517,0.0,,1.0,,0.0,,,,,,,
83,True,1206.1532100544748,0.0,,strong,tasks\AssBind\stim\APETROL2.jpg,10.0,15.0,33.0,,1.0,36.0,recombined,0.7174241656041431,1,1206.870634220079,0.0005205883119288046,tasks\AssBind\stim\AKNIFECOL.jpg,1208.647323727297,new,1206.1532100544748,0.0,,1.0,,0.0,,,,,,,
84,True,1209.187173247025,0.0,,strong,tasks\AssBind\stim\Adice10.jpg,8.0,9.0,,,,37.0,new,0.7410225529160925,1,1209.928195799941,0.0005052117013519819,tasks\AssBind\stim\AHOCKPANT.jpg,1211.6854794210346,new,1209.187173247025,0.0,,1.0,,0.0,,,,,,,
85,True,1212.304420872516,0.0,,strong,tasks\AssBind\stim\Adice10.jpg,8.0,9.0,1.0,,1.0,38.0,old 1,0.5177429462914915,4,1212.8221638188074,0.0006865448839334931,tasks\AssBind\stim\AHOCKPANT.jpg,1214.7908946168805,old,1212.304420872516,0.0,,1.0,,0.0,,,,,,,
86,True,1215.7551129308151,0.0,,strong,tasks\AssBind\stim\Adice10.jpg,8.0,9.0,1.0,,1.0,39.0,old 2,0.4212620567866452,4,1216.1763749876018,0.00047071822348243586,tasks\AssBind\stim\AHOCKPANT.jpg,1218.2472163634,old,1215.7551129308151,0.0,,1.0,,0.0,,,,,,,
87,True,1219.255803908596,0.0,,strong,tasks\AssBind\stim\Hammock.jpg,8.0,13.0,1.0,,30.0,40.0,recombined,0.7193869691675445,1,1219.9751908777635,0.0004927441791551246,tasks\AssBind\stim\AHOCKPANT.jpg,1221.746465454897,new,1219.255803908596,0.0,,1.0,,0.0,,,,,,,
88,True,1222.2564256223648,0.0,,med,tasks\AssBind\stim\ASAFE.jpg,0.0,1.0,26.0,,8.0,41.0,old 2,0.774443546782777,4,1223.0308691691475,0.000481938993402764,tasks\AssBind\stim\AANTFRYI2.jpg,1224.748615314279,old,1222.2564256223648,0.0,,1.0,,0.0,,,,,,,
89,True,1225.5654350971276,0.0,,weak,tasks\AssBind\stim\AWILDPIG.jpg,18.0,17.0,11.0,,18.0,42.0,recombined,0.6631282453649874,1,1226.2285633424926,0.0005104757661911208,tasks\AssBind\stim\APILLS9.jpg,1228.0582923586214,new,1225.5654350971276,0.0,,1.0,,0.0,,,,,,,
90,False,1229.0494448073878,0.0,,weak,tasks\AssBind\stim\AWILDPIG.jpg,16.0,17.0,9.0,,1.0,43.0,old 1,0.5979361263907776,1,1229.6473809337785,0.0005071510936431878,tasks\AssBind\stim\26431734.thl.jpg,1231.5338085955316,old,1229.0494448073878,0.0,,1.0,,0.0,,,,,,,
91,True,1232.2834216865067,0.0,,strong,tasks\AssBind\stim\Adice10.jpg,14.0,9.0,9.0,,5.0,44.0,recombined,0.8722832576693236,1,1233.155704944176,0.00048484808189641626,tasks\AssBind\stim\Acandle109.jpg,1234.7656653813256,new,1232.2834216865067,0.0,,1.0,,0.0,,,,,,,
92,True,1235.5507417067429,0.0,,weak,tasks\AssBind\stim\AWILDPIG.jpg,16.0,17.0,2.0,,2.0,45.0,old 2,0.6511494501269226,4,1236.2018911568698,0.000495514739554892,tasks\AssBind\stim\26431734.thl.jpg,1238.0356192894199,old,1235.5507417067429,0.0,,1.0,,0.0,,,,,,,
93,True,1238.851378547772,0.0,,weak,tasks\AssBind\stim\Acleaningpro6.jpg,18.0,19.0,4.0,,12.0,46.0,old 1,1.7311002061851468,4,1240.582478753957,0.0015432021805281693,tasks\AssBind\stim\APILLS9.jpg,1241.3390583536334,old,1238.851378547772,0.0,,1.0,,0.0,,,,,,,
94,True,1242.3103997420053,0.0,,weak,tasks\AssBind\stim\Acleaningpro6.jpg,18.0,19.0,1.0,,1.0,47.0,old 2,1.4123819949033987,4,1243.7227817369087,0.0004941294594118517,tasks\AssBind\stim\APILLS9.jpg,1244.806158809036,old,1242.3103997420053,0.0,,1.0,,0.0,,,,,,,
95,True,1245.4527342384201,0.0,,med,tasks\AssBind\stim\ATOOHOLDE.jpg,4.0,5.0,15.0,,20.0,48.0,old 2,1.0066332758717635,4,1246.459367514292,0.0004701641114479571,tasks\AssBind\stim\sardines.jpg,1247.942722051511,old,1245.4527342384201,0.0,,1.0,,0.0,,,,,,,
96,True,1570.876001349817,0.0,,strong,tasks\AssBind\stim\26370704.thl.jpg,10.0,11.0,,,,1.0,new,0.7121663344767057,1,1571.5881676842937,0.0005096445980825592,tasks\AssBind\stim\gymbars.jpg,1573.3643694836694,new,1570.876001349817,0.0,,2.0,,0.0,,,,,,,
97,True,1573.9515168541504,0.0,,strong,tasks\AssBind\stim\Aaircompress2.jpg,12.0,13.0,,,,2.0,new,0.5982640222221107,1,1574.5497808763726,0.0005313934976811652,tasks\AssBind\stim\AFLAMMABL.jpg,1576.4472572206869,new,1573.9515168541504,0.0,,2.0,,0.0,,,,,,,
98,True,1577.3689103773559,0.0,,strong,tasks\AssBind\stim\26370704.thl.jpg,10.0,11.0,2.0,,2.0,3.0,old 1,0.8380112861550515,4,1578.206921663511,0.0004683632470232624,tasks\AssBind\stim\gymbars.jpg,1579.8575289886346,old,1577.3689103773559,0.0,,2.0,,0.0,,,,,,,
99,True,1580.452857805417,0.0,,strong,tasks\AssBind\stim\Aaircompress2.jpg,12.0,13.0,2.0,,2.0,4.0,old 1,0.76153425881148,4,1581.2143920642284,0.0004953762116883809,tasks\AssBind\stim\AFLAMMABL.jpg,1582.9388278299145,old,1580.452857805417,0.0,,2.0,,0.0,,,,,,,
100,True,1583.8869040593697,0.0,,med,tasks\AssBind\stim\AWREATH9.jpg,4.0,5.0,,,,5.0,new,0.5300625204674816,1,1584.4169665798372,0.0004978697160140655,tasks\AssBind\stim\ACOMB5.jpg,1586.3743861900941,new,1583.8869040593697,0.0,,2.0,,0.0,,,,,,,
101,True,1587.012474448506,0.0,,med,tasks\AssBind\stim\AWREATH9.jpg,4.0,5.0,1.0,,1.0,6.0,old 1,0.5853266130620796,4,1587.5978010615681,0.00048096929720031767,tasks\AssBind\stim\ACOMB5.jpg,1589.4960813454916,old,1587.012474448506,0.0,,2.0,,0.0,,,,,,,
102,True,1590.1131167198337,0.0,,strong,tasks\AssBind\stim\26370704.thl.jpg,10.0,11.0,4.0,,4.0,7.0,old 2,0.8182810168400465,4,1590.9313977366737,0.000521558008131251,tasks\AssBind\stim\gymbars.jpg,1592.5988434822807,old,1590.1131167198337,0.0,,2.0,,0.0,,,,,,,
103,True,1593.2137318396688,0.0,,weak,tasks\AssBind\stim\Aearsyringe.jpg,16.0,17.0,,,,8.0,new,0.8471865512562999,1,1594.060918390925,0.0010307870220458426,tasks\AssBind\stim\sausage.jpg,1595.7001143083316,new,1593.2137318396688,0.0,,2.0,,0.0,,,,,,,
104,True,1596.6810943603025,0.0,,strong,tasks\AssBind\stim\Aaircompress2.jpg,12.0,13.0,5.0,,5.0,9.0,old 2,0.6988345360337007,4,1597.3799288963362,0.0005208653678892006,tasks\AssBind\stim\AFLAMMABL.jpg,1599.1697660592104,old,1596.6810943603025,0.0,,2.0,,0.0,,,,,,,
105,True,1599.8233870212541,0.0,,med,tasks\AssBind\stim\AARTICHO1.jpg,0.0,1.0,,,,10.0,new,0.6857227200919169,1,1600.509109741346,0.00047584376034137676,tasks\AssBind\stim\Atoychameleo2.jpg,1602.3223438967968,new,1599.8233870212541,0.0,,2.0,,0.0,,,,,,,
106,True,1602.848997805162,0.0,,med,tasks\AssBind\stim\AARTICHO1.jpg,0.0,1.0,1.0,,1.0,11.0,old 1,0.5706492919277935,4,1603.4196470970899,0.0005798783058708068,tasks\AssBind\stim\Atoychameleo2.jpg,1605.3376760510973,old,1602.848997805162,0.0,,2.0,,0.0,,,,,,,
107,True,1606.1746516989908,0.0,,weak,tasks\AssBind\stim\AGREENPEP.jpg,22.0,23.0,,,,12.0,new,0.6610824635158679,1,1606.8357341625067,0.0005246056246051012,tasks\AssBind\stim\8252065.thl.jpg,1608.6544091006524,new,1606.1746516989908,0.0,,2.0,,0.0,,,,,,,
108,True,1609.3169277365796,0.0,,med,tasks\AssBind\stim\AWEIGHT7.jpg,2.0,3.0,,,,13.0,new,0.6783631417933975,1,1609.995290878373,0.0005014714446360813,tasks\AssBind\stim\Ahalfchoc.jpg,1611.8021674325532,new,1609.3169277365796,0.0,,2.0,,0.0,,,,,,,
109,True,1612.54258628495,0.0,,weak,tasks\AssBind\stim\AAPPCOVE2.jpg,18.0,19.0,,,,14.0,new,0.7785135001099661,1,1613.32109978506,0.0004824931054372428,tasks\AssBind\stim\ADESKLA12.jpg,1615.0278231918755,new,1612.54258628495,0.0,,2.0,,0.0,,,,,,,
110,True,1615.6098856922163,0.0,,weak,tasks\AssBind\stim\AGREENPEP.jpg,18.0,23.0,1.0,,3.0,15.0,recombined,0.9280524234368386,1,1616.537938115653,0.000538319898851114,tasks\AssBind\stim\ADESKLA12.jpg,1618.0922492864206,new,1615.6098856922163,0.0,,2.0,,0.0,,,,,,,
111,True,1618.6938189904188,0.0,,med,tasks\AssBind\stim\AWREATH9.jpg,0.0,5.0,5.0,,10.0,16.0,recombined,0.9288474357633731,1,1619.6226664261821,0.0005376272587227504,tasks\AssBind\stim\Atoychameleo2.jpg,1621.1791129778244,new,1618.6938189904188,0.0,,2.0,,0.0,,,,,,,
112,True,1622.127843634,0.0,,med,tasks\AssBind\stim\AARTICHO1.jpg,4.0,1.0,11.0,,6.0,17.0,recombined,0.7191970472474623,1,1622.8470406812476,0.0006679821287889354,tasks\AssBind\stim\ACOMB5.jpg,1624.6135503640155,new,1622.127843634,0.0,,2.0,,0.0,,,,,,,
113,True,1625.1450587885226,0.0,,med,tasks\AssBind\stim\AARTICHO1.jpg,0.0,1.0,2.0,,1.0,18.0,old 2,0.64385691939151,4,1625.7889157079142,0.0005097831260627572,tasks\AssBind\stim\Atoychameleo2.jpg,1627.6320079510142,old,1625.1450587885226,0.0,,2.0,,0.0,,,,,,,
114,True,1628.2040509472824,0.0,,med,tasks\AssBind\stim\AWREATH9.jpg,4.0,5.0,2.0,,3.0,19.0,old 2,0.8292683670149472,4,1629.0333193142974,0.0005059043414803455,tasks\AssBind\stim\ACOMB5.jpg,1630.691630795658,old,1628.2040509472824,0.0,,2.0,,0.0,,,,,,,
115,True,1631.3130004671166,0.0,,weak,tasks\AssBind\stim\AAPPCOVE2.jpg,22.0,19.0,8.0,,6.0,20.0,recombined,1.0311761472476064,1,1632.3441766143642,0.0019223533805643456,tasks\AssBind\stim\8252065.thl.jpg,1633.7984813362905,new,1631.3130004671166,0.0,,2.0,,0.0,,,,,,,
116,True,1634.6053505617865,0.0,,med,tasks\AssBind\stim\AWEIGHT7.jpg,2.0,3.0,8.0,,8.0,21.0,old 1,0.8555950637478418,4,1635.4609456255344,0.0004770905125042191,tasks\AssBind\stim\Ahalfchoc.jpg,1637.093023505028,old,1634.6053505617865,0.0,,2.0,,0.0,,,,,,,
117,True,1637.689288292886,0.0,,weak,tasks\AssBind\stim\AAPPCOVE2.jpg,18.0,19.0,7.0,,2.0,22.0,old 1,1.1573926310848037,4,1638.8466809239708,0.0007476357421865032,tasks\AssBind\stim\ADESKLA12.jpg,1640.1765411652934,old,1637.689288292886,0.0,,2.0,,0.0,,,,,,,
118,True,1641.1316290507673,0.0,,weak,tasks\AssBind\stim\AGREENPEP.jpg,22.0,23.0,3.0,,8.0,23.0,old 1,0.9568427025376423,4,1642.088471753305,0.0004984238281622311,tasks\AssBind\stim\8252065.thl.jpg,1643.6224737000377,old,1641.1316290507673,0.0,,2.0,,0.0,,,,,,,
119,True,1644.590665206027,0.0,,weak,tasks\AssBind\stim\AAPPCOVE2.jpg,18.0,19.0,2.0,,2.0,24.0,old 2,0.8170993728006124,4,1645.4077645788277,0.0006764323381958093,tasks\AssBind\stim\ADESKLA12.jpg,1647.079431178353,old,1644.590665206027,0.0,,2.0,,0.0,,,,,,,
120,True,1647.6745946254453,0.0,,weak,tasks\AssBind\stim\AGREENPEP.jpg,22.0,23.0,2.0,,2.0,25.0,old 2,0.9090111925099791,4,1648.5836058179552,0.00047653640046974033,tasks\AssBind\stim\8252065.thl.jpg,1650.163635713425,old,1647.6745946254453,0.0,,2.0,,0.0,,,,,,,
121,True,1650.8418694301345,0.0,,strong,tasks\AssBind\stim\AARMHEL12.jpg,8.0,9.0,,,,26.0,new,0.6134511264822322,1,1651.4553205566167,0.0005097831260627572,tasks\AssBind\stim\thumb-mermaidfamilly.jpg,1653.329123314365,new,1650.8418694301345,0.0,,2.0,,0.0,,,,,,,
122,True,1654.317563580207,0.0,,strong,tasks\AssBind\stim\AARMHEL12.jpg,8.0,9.0,1.0,,1.0,27.0,old 1,0.5917008415299279,4,1654.909264421737,0.0005222506481459277,tasks\AssBind\stim\thumb-mermaidfamilly.jpg,1656.8059393058577,old,1654.317563580207,0.0,,2.0,,0.0,,,,,,,
123,True,1657.3598329130393,0.0,,med,tasks\AssBind\stim\Aclimbersicep.jpg,6.0,7.0,,,,28.0,new,0.6466309430600177,1,1658.0064638560993,0.0005284844091875129,tasks\AssBind\stim\Ahawk3.jpg,1659.8570680681066,new,1657.3598329130393,0.0,,2.0,,0.0,,,,,,,
124,True,1660.818836929798,0.0,,weak,tasks\AssBind\stim\Azebratoy2.jpg,20.0,21.0,,,,29.0,new,0.6645726770650526,1,1661.483409606863,0.0015750636259781459,tasks\AssBind\stim\26375953.thl.jpg,1663.3130236574834,new,1660.818836929798,0.0,,2.0,,0.0,,,,,,,
125,True,1663.9611520322892,0.0,,strong,tasks\AssBind\stim\AARMHEL12.jpg,8.0,9.0,3.0,,3.0,30.0,old 2,1.083001697245436,4,1665.0441537295346,0.0005678263678419171,tasks\AssBind\stim\thumb-mermaidfamilly.jpg,1666.456258772794,old,1663.9611520322892,0.0,,2.0,,0.0,,,,,,,
126,True,1667.1284514949666,0.0,,strong,tasks\AssBind\stim\Aaircompress2.jpg,8.0,13.0,1.0,,22.0,31.0,recombined,0.8208418458805227,1,1667.9492933408471,0.0005423372115274105,tasks\AssBind\stim\thumb-mermaidfamilly.jpg,1669.6166101173656,new,1667.1284514949666,0.0,,2.0,,0.0,,,,,,,
127,True,1670.5457987498123,0.0,,med,tasks\AssBind\stim\Aclimbersicep.jpg,6.0,7.0,4.0,,4.0,32.0,old 1,0.9695882503854136,4,1671.5153870001977,0.00046891735917142796,tasks\AssBind\stim\Ahawk3.jpg,1673.032449927176,old,1670.5457987498123,0.0,,2.0,,0.0,,,,,,,
128,True,1673.9631875630648,0.0,,strong,tasks\AssBind\stim\AARMHEL12.jpg,10.0,9.0,26.0,,3.0,33.0,recombined,1.0471196145153954,1,1675.0103071775802,0.000485540721911093,tasks\AssBind\stim\gymbars.jpg,1676.4524470097474,new,1673.9631875630648,0.0,,2.0,,0.0,,,,,,,
129,True,1677.1137957842043,0.0,,weak,tasks\AssBind\stim\Azebratoy2.jpg,16.0,21.0,26.0,,5.0,34.0,recombined,0.7680676559784843,1,1677.8818634401828,0.0004944065153722477,tasks\AssBind\stim\sausage.jpg,1679.5964956377563,new,1677.1137957842043,0.0,,2.0,,0.0,,,,,,,
130,True,1680.5144739619957,0.0,,weak,tasks\AssBind\stim\Aearsyringe.jpg,20.0,17.0,6.0,,27.0,35.0,recombined,0.8473928194830478,1,1681.3618667814787,0.00046434593446065264,tasks\AssBind\stim\26375953.thl.jpg,1683.0002931652027,new,1680.5144739619957,0.0,,2.0,,0.0,,,,,,,
131,True,1683.7568082367654,0.0,,weak,tasks\AssBind\stim\Aearsyringe.jpg,16.0,17.0,2.0,,1.0,36.0,old 1,0.5467489135246524,4,1684.30355715029,0.0005104757661911208,tasks\AssBind\stim\sausage.jpg,1686.2402074584822,old,1683.7568082367654,0.0,,2.0,,0.0,,,,,,,
132,True,1686.9157491955677,0.0,,med,tasks\AssBind\stim\Aclimbersicep.jpg,2.0,7.0,16.0,,5.0,37.0,recombined,0.9434304193132448,1,1687.859179614881,0.0005103372382109228,tasks\AssBind\stim\Ahalfchoc.jpg,1689.3966926339415,new,1686.9157491955677,0.0,,2.0,,0.0,,,,,,,
133,True,1690.233083650424,0.0,,weak,tasks\AssBind\stim\Azebratoy2.jpg,20.0,21.0,3.0,,4.0,38.0,old 1,0.8066454940433232,4,1691.0397291444674,0.002292777315119565,tasks\AssBind\stim\26375953.thl.jpg,1692.7255227734863,old,1690.233083650424,0.0,,2.0,,0.0,,,,,,,
134,True,1693.6004272758353,0.0,,strong,tasks\AssBind\stim\AARTMELON.jpg,14.0,15.0,,,,39.0,new,0.8277178228493085,1,1694.4281450986846,0.0005093675420084764,tasks\AssBind\stim\ATRACINGT.jpg,1696.0865573771227,new,1693.6004272758353,0.0,,2.0,,0.0,,,,,,,
135,True,1696.8427357843927,0.0,,med,tasks\AssBind\stim\AWEIGHT7.jpg,6.0,3.0,8.0,,19.0,40.0,recombined,0.8296555528402223,1,1697.672391337233,0.0005046575892038163,tasks\AssBind\stim\Ahawk3.jpg,1699.3315088660902,new,1696.8427357843927,0.0,,2.0,,0.0,,,,,,,
136,True,1700.1350736885968,0.0,,med,tasks\AssBind\stim\AWEIGHT7.jpg,2.0,3.0,4.0,,1.0,41.0,old 2,0.9238957515672155,4,1701.058969440164,0.0004732117279218073,tasks\AssBind\stim\Ahalfchoc.jpg,1702.6243597091704,old,1700.1350736885968,0.0,,2.0,,0.0,,,,,,,
137,True,1703.4857288430305,0.0,,med,tasks\AssBind\stim\Aclimbersicep.jpg,6.0,7.0,2.0,,5.0,42.0,old 2,0.8757037916227546,4,1704.3614326346533,0.00047542817617340916,tasks\AssBind\stim\Ahawk3.jpg,1705.975125657484,old,1703.4857288430305,0.0,,2.0,,0.0,,,,,,,
138,True,1706.978066858057,0.0,,strong,tasks\AssBind\stim\AARTMELON.jpg,14.0,15.0,4.0,,4.0,43.0,old 1,0.768124729524061,4,1707.746191587581,0.0004977311880338675,tasks\AssBind\stim\ATRACINGT.jpg,1709.467702814044,old,1706.978066858057,0.0,,2.0,,0.0,,,,,,,
139,True,1710.328705389128,0.0,,strong,tasks\AssBind\stim\AARTMELON.jpg,14.0,15.0,1.0,,1.0,44.0,old 2,0.5619991865635257,4,1710.8907045756914,0.0005201727278745238,tasks\AssBind\stim\ATRACINGT.jpg,1712.826797964227,old,1710.328705389128,0.0,,2.0,,0.0,,,,,,,
140,True,1713.7377647893902,0.0,,strong,tasks\AssBind\stim\AARTMELON.jpg,12.0,15.0,36.0,,1.0,45.0,recombined,0.7588849103642588,1,1714.4966496997545,0.000506596981608709,tasks\AssBind\stim\AFLAMMABL.jpg,1716.2257663016644,new,1713.7377647893902,0.0,,2.0,,0.0,,,,,,,
141,True,1717.171792203532,0.0,,weak,tasks\AssBind\stim\Aearsyringe.jpg,16.0,17.0,10.0,,10.0,46.0,old 2,0.7756249137662508,4,1717.9474171172983,0.00048470955380253145,tasks\AssBind\stim\sausage.jpg,1719.6553075416675,old,1717.171792203532,0.0,,2.0,,0.0,,,,,,,
142,True,1720.530805861841,0.0,,weak,tasks\AssBind\stim\Azebratoy2.jpg,20.0,21.0,9.0,,9.0,47.0,old 2,0.6864743731468934,4,1721.2172802349878,0.0005384584269449988,tasks\AssBind\stim\26375953.thl.jpg,1723.01745929856,old,1720.530805861841,0.0,,2.0,,0.0,,,,,,,
143,True,1723.7063693522819,0.0,,strong,tasks\AssBind\stim\26370704.thl.jpg,14.0,11.0,4.0,,41.0,48.0,recombined,0.7970377444535188,1,1724.5034070967354,0.0004993935243646774,tasks\AssBind\stim\ATRACINGT.jpg,1726.2032249480312,new,1723.7063693522819,0.0,,2.0,,0.0,,,,,,,
144,True,2544.1119896558353,0.0,,weak,tasks\AssBind\stim\sntslrc.jpg,22.0,23.0,,,,1.0,new,0.8810968261018388,1,2544.993086481937,0.00047806020870666543,tasks\AssBind\stim\ADOGTOY.jpg,2546.599884389196,new,2544.1119896558353,0.0,,3.0,,0.0,,,,,,,
145,True,2547.4873111101138,0.0,,strong,tasks\AssBind\stim\Akangarooandb.jpg,10.0,11.0,,,,2.0,new,0.9691913675983415,1,2548.456502477712,0.0005225277043336973,tasks\AssBind\stim\Acautionroads.jpg,2549.9781351800348,new,2547.4873111101138,0.0,,3.0,,0.0,,,,,,,
146,True,2550.5962476083137,0.0,,strong,tasks\AssBind\stim\Akangarooandb.jpg,10.0,11.0,1.0,,1.0,3.0,old 1,0.6412742029237961,4,2551.2375218112375,0.0005089519579541957,tasks\AssBind\stim\Acautionroads.jpg,2553.08290409292,old,2550.5962476083137,0.0,,3.0,,0.0,,,,,,,
147,True,2553.8302616129426,0.0,,weak,tasks\AssBind\stim\Abuilding116.jpg,18.0,19.0,,,,4.0,new,0.5592586866764577,1,2554.389520299619,0.0005286229372813978,tasks\AssBind\stim\22910996.thl.jpg,2556.328199341857,new,2553.8302616129426,0.0,,3.0,,0.0,,,,,,,
148,True,2556.8974812280676,0.0,,med,tasks\AssBind\stim\ALAMP45.jpg,2.0,3.0,,,,5.0,new,0.6887445703941921,1,2557.586225798462,0.0004963459077771404,tasks\AssBind\stim\fullbucket.jpg,2559.3952307249065,new,2556.8974812280676,0.0,,3.0,,0.0,,,,,,,
149,True,2559.948192181589,0.0,,med,tasks\AssBind\stim\ALAMP45.jpg,2.0,3.0,1.0,,1.0,6.0,old 1,0.6160755398855144,4,2560.5642677214746,0.000691670420792434,tasks\AssBind\stim\fullbucket.jpg,2562.4450384518186,old,2559.948192181589,0.0,,3.0,,0.0,,,,,,,
150,True,2563.082051533533,0.0,,med,tasks\AssBind\stim\headcomb1.jpg,0.0,1.0,,,,7.0,new,0.5958623618803358,1,2563.6779138954134,0.000492190067006959,tasks\AssBind\stim\AMUSIHORN.jpg,2565.566048622095,new,2563.082051533533,0.0,,3.0,,0.0,,,,,,,
151,True,2566.474371761561,0.0,,med,tasks\AssBind\stim\Aornamentalt5.jpg,6.0,7.0,,,,8.0,new,0.7298908565408055,1,2567.204262618102,0.0005144930789811042,tasks\AssBind\stim\26687325.thl.jpg,2568.9693635937247,new,2566.474371761561,0.0,,3.0,,0.0,,,,,,,
152,True,2569.550020252797,0.0,,strong,tasks\AssBind\stim\Awindtoy5.jpg,12.0,13.0,,,,9.0,new,0.5712509191334902,1,2570.1212711719304,0.0005124151584823267,tasks\AssBind\stim\Atoothbrush3.jpg,2572.0359366505236,new,2569.550020252797,0.0,,3.0,,0.0,,,,,,,
153,True,2572.5756875561383,0.0,,weak,tasks\AssBind\stim\8018499.thl.jpg,20.0,21.0,,,,10.0,new,0.7085001903378725,1,2573.284187746476,0.0005981640049412817,tasks\AssBind\stim\seahorse.jpg,2575.0591604118144,new,2572.5756875561383,0.0,,3.0,,0.0,,,,,,,
154,True,2575.8679318153986,0.0,,med,tasks\AssBind\stim\headcomb1.jpg,0.0,1.0,4.0,,4.0,11.0,old 1,0.7583712484533862,4,2576.626303063852,0.0005138004389664275,tasks\AssBind\stim\AMUSIHORN.jpg,2578.3552326364916,old,2575.8679318153986,0.0,,3.0,,0.0,,,,,,,
155,True,2579.085215513587,0.0,,weak,tasks\AssBind\stim\Aelectronicg9.jpg,16.0,17.0,,,,12.0,new,0.6005630332983856,1,2579.6857785468856,0.0004682247190430644,tasks\AssBind\stim\Acase2.jpg,2581.5772288439316,new,2579.085215513587,0.0,,3.0,,0.0,,,,,,,
156,True,2582.3359526211993,0.0,,med,tasks\AssBind\stim\AFRYINGP2.jpg,4.0,5.0,,,,13.0,new,0.5788203673878343,1,2582.914772988587,0.00046614679854428687,tasks\AssBind\stim\A56THUND4.jpg,2584.823424563307,new,2582.3359526211993,0.0,,3.0,,0.0,,,,,,,
157,True,2585.6365390380283,0.0,,strong,tasks\AssBind\stim\Akangarooandb.jpg,10.0,11.0,11.0,,11.0,14.0,old 2,0.7103786303346169,4,2586.346917668363,0.0004987008842363139,tasks\AssBind\stim\Acautionroads.jpg,2588.133869482941,old,2585.6365390380283,0.0,,3.0,,0.0,,,,,,,
158,True,2588.8788364643437,0.0,,strong,tasks\AssBind\stim\Awindtoy5.jpg,12.0,13.0,6.0,,6.0,15.0,old 1,0.6015485216566958,4,2589.4803849860004,0.0005408134034041723,tasks\AssBind\stim\Atoothbrush3.jpg,2591.378344261029,old,2588.8788364643437,0.0,,3.0,,0.0,,,,,,,
159,True,2592.221210413539,0.0,,weak,tasks\AssBind\stim\sntslrc.jpg,16.0,23.0,4.0,,15.0,16.0,recombined,0.7231908101616682,1,2592.944401223701,0.0005011943887893722,tasks\AssBind\stim\Acase2.jpg,2594.7063134681403,new,2592.221210413539,0.0,,3.0,,0.0,,,,,,,
160,True,2595.338501813886,0.0,,weak,tasks\AssBind\stim\Aelectronicg9.jpg,18.0,17.0,13.0,,5.0,17.0,recombined,1.0338020844583298,1,2596.3723038983444,0.0005262679608222243,tasks\AssBind\stim\22910996.thl.jpg,2597.8289859760766,new,2595.338501813886,0.0,,3.0,,0.0,,,,,,,
161,True,2598.5308091865136,0.0,,med,tasks\AssBind\stim\AFRYINGP2.jpg,4.0,5.0,5.0,,5.0,18.0,old 1,0.8544652291889179,4,2599.3852744157025,0.0004959303237228596,tasks\AssBind\stim\A56THUND4.jpg,2601.0179779689715,old,2598.5308091865136,0.0,,3.0,,0.0,,,,,,,
162,True,2601.639737373032,0.0,,weak,tasks\AssBind\stim\Abuilding116.jpg,20.0,19.0,9.0,,15.0,19.0,recombined,0.8103752225456446,1,2602.4501125955776,0.000552588285472666,tasks\AssBind\stim\seahorse.jpg,2604.124414928684,new,2601.639737373032,0.0,,3.0,,0.0,,,,,,,
163,True,2604.732040257352,0.0,,weak,tasks\AssBind\stim\Aelectronicg9.jpg,16.0,17.0,4.0,,3.0,20.0,old 1,0.7326495035986227,4,2605.4646897609505,0.0005128307425366074,tasks\AssBind\stim\Acase2.jpg,2607.228031687182,old,2604.732040257352,0.0,,3.0,,0.0,,,,,,,
164,True,2607.7993180542467,0.0,,weak,tasks\AssBind\stim\Aelectronicg9.jpg,16.0,17.0,1.0,,1.0,21.0,old 2,0.43056767675761876,4,2608.2298857310043,0.0005041034771693376,tasks\AssBind\stim\Acase2.jpg,2610.29600183761,old,2607.7993180542467,0.0,,3.0,,0.0,,,,,,,
165,True,2610.9165809178203,0.0,,weak,tasks\AssBind\stim\Abuilding116.jpg,18.0,19.0,5.0,,3.0,22.0,old 1,0.795414888659252,4,2611.7119958064795,0.0004970385477918171,tasks\AssBind\stim\22910996.thl.jpg,2613.414128669765,old,2610.9165809178203,0.0,,3.0,,0.0,,,,,,,
166,True,2614.183923656652,0.0,,strong,tasks\AssBind\stim\Aboxofchocola.jpg,14.0,15.0,,,,23.0,new,0.6086568101209195,1,2614.792580466773,0.0005162939432921121,tasks\AssBind\stim\8245419.thl.jpg,2616.674778900568,new,2614.183923656652,0.0,,3.0,,0.0,,,,,,,
167,True,2617.226199915886,0.0,,strong,tasks\AssBind\stim\launmower.jpg,8.0,9.0,,,,24.0,new,0.7603423636978732,1,2617.986542279584,0.0005153242470896657,tasks\AssBind\stim\Abutanco3.jpg,2619.7226042678617,new,2617.226199915886,0.0,,3.0,,0.0,,,,,,,
168,True,2620.4268350391676,0.0,,weak,tasks\AssBind\stim\Abuilding116.jpg,18.0,19.0,3.0,,3.0,25.0,old 2,0.6491770881293633,4,2621.076012127297,0.0004869260021678201,tasks\AssBind\stim\22910996.thl.jpg,2622.9186073548262,old,2620.4268350391676,0.0,,3.0,,0.0,,,,,,,
169,True,2623.4607284135936,0.0,,med,tasks\AssBind\stim\AFRYINGP2.jpg,0.0,5.0,15.0,,8.0,26.0,recombined,0.7756936236655747,1,2624.236422037259,0.000496900019925306,tasks\AssBind\stim\AMUSIHORN.jpg,2625.9537435231405,new,2623.4607284135936,0.0,,3.0,,0.0,,,,,,,
170,True,2626.586388291833,0.0,,med,tasks\AssBind\stim\ALAMP45.jpg,4.0,3.0,9.0,,21.0,27.0,recombined,0.7115388025304128,1,2627.2979270943633,0.0005218350640916469,tasks\AssBind\stim\A56THUND4.jpg,2629.0851937195152,new,2626.586388291833,0.0,,3.0,,0.0,,,,,,,
171,True,2629.8787508540254,0.0,,med,tasks\AssBind\stim\Aornamentalt5.jpg,6.0,7.0,20.0,,20.0,28.0,old 1,0.6779389689854725,4,2630.556689823011,0.000531393497794852,tasks\AssBind\stim\26687325.thl.jpg,2632.363674295687,old,2629.8787508540254,0.0,,3.0,,0.0,,,,,,,
172,True,2633.27103838944,0.0,,strong,tasks\AssBind\stim\launmower.jpg,8.0,9.0,5.0,,5.0,29.0,old 1,0.668823409462675,4,2633.9398617989027,0.0004772290405981039,tasks\AssBind\stim\Abutanco3.jpg,2635.7611657825832,old,2633.27103838944,0.0,,3.0,,0.0,,,,,,,
173,True,2636.321620788956,0.0,,med,tasks\AssBind\stim\AFRYINGP2.jpg,4.0,5.0,3.0,,4.0,30.0,old 2,0.5935676451731524,4,2636.915188434129,0.0005491250847171614,tasks\AssBind\stim\A56THUND4.jpg,2638.8172783467385,old,2636.321620788956,0.0,,3.0,,0.0,,,,,,,
174,True,2639.56397999877,0.0,,weak,tasks\AssBind\stim\8018499.thl.jpg,22.0,21.0,30.0,,21.0,31.0,recombined,0.7720177825653991,1,2640.335997781335,0.0006391683000401827,tasks\AssBind\stim\ADOGTOY.jpg,2642.0530415553862,new,2639.56397999877,0.0,,3.0,,0.0,,,,,,,
175,True,2642.8229628484464,0.0,,weak,tasks\AssBind\stim\8018499.thl.jpg,20.0,21.0,13.0,,1.0,32.0,old 1,1.133401516826325,4,2643.9563643652727,0.0005218350640916469,tasks\AssBind\stim\seahorse.jpg,2645.3193027178013,old,2642.8229628484464,0.0,,3.0,,0.0,,,,,,,
176,True,2646.2070032565166,0.0,,weak,tasks\AssBind\stim\sntslrc.jpg,22.0,23.0,2.0,,17.0,33.0,old 1,0.9846585755221895,4,2647.191661832039,0.000506735509588907,tasks\AssBind\stim\ADOGTOY.jpg,2648.705601232519,old,2646.2070032565166,0.0,,3.0,,0.0,,,,,,,
177,True,2649.3409108162127,0.0,,med,tasks\AssBind\stim\Aornamentalt5.jpg,2.0,7.0,28.0,,6.0,34.0,recombined,0.7440240395990259,1,2650.0849348558118,0.0005413675153249642,tasks\AssBind\stim\fullbucket.jpg,2651.8270425800174,new,2649.3409108162127,0.0,,3.0,,0.0,,,,,,,
178,True,2652.491507400998,0.0,,med,tasks\AssBind\stim\ALAMP45.jpg,2.0,3.0,1.0,,8.0,35.0,old 2,1.056905788199856,4,2653.548413189198,0.0005029952528730064,tasks\AssBind\stim\fullbucket.jpg,2654.983266893411,old,2652.491507400998,0.0,,3.0,,0.0,,,,,,,
179,True,2655.533833807376,0.0,,weak,tasks\AssBind\stim\8018499.thl.jpg,20.0,21.0,4.0,,4.0,36.0,old 2,0.6063532276198202,4,2656.140187034996,0.000500363220453437,tasks\AssBind\stim\seahorse.jpg,2658.0334188644874,old,2655.533833807376,0.0,,3.0,,0.0,,,,,,,
180,True,2658.8345180249894,0.0,,strong,tasks\AssBind\stim\launmower.jpg,8.0,9.0,8.0,,8.0,37.0,old 2,0.5829029267647456,4,2659.417420951754,0.00048817275433066243,tasks\AssBind\stim\Abutanco3.jpg,2661.320100810853,old,2658.8345180249894,0.0,,3.0,,0.0,,,,,,,
181,True,2661.86842442105,0.0,,med,tasks\AssBind\stim\headcomb1.jpg,6.0,1.0,10.0,,27.0,38.0,recombined,0.7944310626371589,1,2662.662855483687,0.0004831857456792932,tasks\AssBind\stim\26687325.thl.jpg,2664.3672595402822,new,2661.86842442105,0.0,,3.0,,0.0,,,,,,,
182,True,2665.0690196482606,0.0,,strong,tasks\AssBind\stim\Aboxofchocola.jpg,14.0,15.0,16.0,,16.0,39.0,old 1,0.7695945118525742,4,2665.838614160113,0.000498562356142429,tasks\AssBind\stim\8245419.thl.jpg,2667.563906697686,old,2665.0690196482606,0.0,,3.0,,0.0,,,,,,,
183,True,2668.3280315888223,0.0,,strong,tasks\AssBind\stim\Akangarooandb.jpg,8.0,11.0,3.0,,26.0,40.0,recombined,0.848340766747242,1,2669.1763723555696,0.0007329517718517309,tasks\AssBind\stim\Abutanco3.jpg,2670.822398944361,new,2668.3280315888223,0.0,,3.0,,0.0,,,,,,,
184,True,2671.495320800426,0.0,,med,tasks\AssBind\stim\headcomb1.jpg,0.0,1.0,15.0,,3.0,41.0,old 2,0.8681283866640115,4,2672.36344918709,0.00046503857447532937,tasks\AssBind\stim\AMUSIHORN.jpg,2673.9943739763157,old,2671.495320800426,0.0,,3.0,,0.0,,,,,,,
185,True,2674.7459819946816,0.0,,strong,tasks\AssBind\stim\Awindtoy5.jpg,12.0,13.0,27.0,,27.0,42.0,old 2,0.7048107734908626,4,2675.4507927681725,0.0005193415597659623,tasks\AssBind\stim\Atoothbrush3.jpg,2677.2397221187675,old,2674.7459819946816,0.0,,3.0,,0.0,,,,,,,
186,True,2678.1049516010794,0.0,,strong,tasks\AssBind\stim\launmower.jpg,10.0,9.0,29.0,,6.0,43.0,recombined,0.7688880189325573,1,2678.873839620012,0.0005176792233214655,tasks\AssBind\stim\Acautionroads.jpg,2680.599677737082,new,2678.1049516010794,0.0,,3.0,,0.0,,,,,,,
187,True,2681.5473289303586,0.0,,med,tasks\AssBind\stim\Aornamentalt5.jpg,6.0,7.0,6.0,,10.0,44.0,old 2,0.635898761503995,4,2682.1832276918626,0.0005059043414803455,tasks\AssBind\stim\26687325.thl.jpg,2684.0434176925382,old,2681.5473289303586,0.0,,3.0,,0.0,,,,,,,
188,True,2684.7396321471456,0.0,,weak,tasks\AssBind\stim\sntslrc.jpg,22.0,23.0,12.0,,12.0,45.0,old 2,0.6311615186882591,4,2685.370793665834,0.0009570901133884036,tasks\AssBind\stim\ADOGTOY.jpg,2687.239014866459,old,2684.7396321471456,0.0,,3.0,,0.0,,,,,,,
189,True,2688.106965244427,0.0,,strong,tasks\AssBind\stim\Aboxofchocola.jpg,14.0,15.0,7.0,,7.0,46.0,old 2,0.5835752032621713,4,2688.6905404476893,0.0005234974005361437,tasks\AssBind\stim\8245419.thl.jpg,2690.6037731932975,old,2688.106965244427,0.0,,3.0,,0.0,,,,,,,
190,True,2691.190945919214,0.0,,strong,tasks\AssBind\stim\Aboxofchocola.jpg,12.0,15.0,5.0,,1.0,47.0,recombined,0.7179629010870485,1,2691.908908820301,0.0005090904860480805,tasks\AssBind\stim\Atoothbrush3.jpg,2693.680330615386,new,2691.190945919214,0.0,,3.0,,0.0,,,,,,,
191,True,2694.4832400485625,0.0,,strong,tasks\AssBind\stim\Awindtoy5.jpg,14.0,13.0,2.0,,6.0,48.0,recombined,0.777583838544615,1,2695.260823887107,0.0005225277043336973,tasks\AssBind\stim\8245419.thl.jpg,2696.9761345679835,new,2694.4832400485625,0.0,,3.0,,0.0,,,,,,,
